
time,gFx,gFy,gFz,ax,ay,az,wx,wy,wz,Bx,By,Bz,
0.0450,0.0140,0.0543,1.0366,0.0000,0.0000,0.0000,0.0000,0.0000,0.0000,0.0000,0.0000,0.0000,
0.0450,0.0140,0.0543,1.0366,0.0000,0.0000,0.0000,-0.0042,0.0238,0.0111,0.0000,0.0000,0.0000,
0.1110,-0.0059,0.0425,1.0114,0.0000,0.0000,0.0000,-0.0042,0.0238,0.0111,0.0000,0.0000,0.0000,
0.1120,0.0038,0.0475,1.0277,0.0000,0.0000,0.0000,-0.0042,0.0238,0.0111,0.0000,0.0000,0.0000,
0.1120,0.0214,0.0668,0.9931,0.0000,0.0000,0.0000,-0.0042,0.0238,0.0111,0.0000,0.0000,0.0000,
0.1130,0.0473,0.0653,1.0280,0.0000,0.0000,0.0000,-0.0042,0.0238,0.0111,0.0000,0.0000,0.0000,
0.1140,0.0473,0.0653,1.0280,0.0000,0.0000,0.0000,-0.0079,-0.1503,-0.0320,0.0000,0.0000,0.0000,
0.1150,0.0473,0.0653,1.0280,0.0000,0.0000,0.0000,0.0065,-0.0889,0.0099,0.0000,0.0000,0.0000,
0.1450,0.0473,0.0653,1.0280,0.0000,0.0000,0.0000,0.0065,-0.0889,0.0099,13.3582,4.1023,-46.8025,
0.1460,0.0624,0.0522,1.0340,0.0000,0.0000,0.0000,0.0065,-0.0889,0.0099,13.3582,4.1023,-46.8025,
0.1670,0.0624,0.0522,1.0340,0.0000,0.0000,0.0000,0.0157,-0.0034,0.0532,13.3582,4.1023,-46.8025,
0.1680,0.0586,0.0505,1.0219,0.0000,0.0000,0.0000,0.0157,-0.0034,0.0532,13.3582,4.1023,-46.8025,
0.1700,0.0523,0.0544,1.0079,0.0000,0.0000,0.0000,0.0157,-0.0034,0.0532,13.3582,4.1023,-46.8025,
0.1710,0.0523,0.0544,1.0079,0.0000,0.0000,0.0000,0.0157,-0.0034,0.0532,13.3582,4.1023,-46.8025,
0.2040,0.0523,0.0544,1.0079,0.0000,0.0000,0.0000,-0.0134,0.0153,-0.0023,13.3582,4.1023,-46.8025,
0.2050,0.0316,0.0565,1.0284,0.0000,0.0000,0.0000,-0.0134,0.0153,-0.0023,13.3582,4.1023,-46.8025,
0.2060,0.0316,0.0565,1.0284,0.0000,0.0000,0.0000,-0.0134,0.0153,-0.0023,13.4617,4.0663,-46.8123,
0.2440,0.0316,0.0565,1.0284,0.0000,0.0000,0.0000,-0.0161,-0.0385,0.0245,13.4617,4.0663,-46.8123,
0.2450,0.0204,0.0436,1.0472,0.0000,0.0000,0.0000,-0.0161,-0.0385,0.0245,13.4617,4.0663,-46.8123,
0.2460,0.0238,0.0595,1.0343,0.0000,0.0000,0.0000,-0.0161,-0.0385,0.0245,13.4617,4.0663,-46.8123,
0.2470,0.0492,0.0607,1.0208,0.0000,0.0000,0.0000,-0.0161,-0.0385,0.0245,13.4617,4.0663,-46.8123,
0.2480,0.0492,0.0607,1.0208,0.1567,-0.0138,0.0283,-0.0161,-0.0385,0.0245,13.4617,4.0663,-46.8123,
0.2640,0.0492,0.0607,1.0208,0.1567,-0.0138,0.0283,-0.0161,-0.0385,0.0245,13.5267,4.0839,-46.8232,
0.3050,0.0701,0.0517,1.0264,0.1567,-0.0138,0.0283,-0.0161,-0.0385,0.0245,13.5267,4.0839,-46.8232,
0.3060,0.0313,0.0417,0.9919,0.1567,-0.0138,0.0283,-0.0161,-0.0385,0.0245,13.5267,4.0839,-46.8232,
0.3070,0.0415,0.0548,1.0515,0.1567,-0.0138,0.0283,-0.0161,-0.0385,0.0245,13.5267,4.0839,-46.8232,
0.3070,0.0415,0.0548,1.0515,0.1567,-0.0138,0.0283,-0.0274,-0.1124,0.0493,13.5267,4.0839,-46.8232,
0.3080,0.0415,0.0548,1.0515,0.1567,-0.0138,0.0283,-0.0082,0.0739,-0.0421,13.5267,4.0839,-46.8232,
0.3080,0.0415,0.0548,1.0515,-0.0511,0.0069,0.1105,-0.0082,0.0739,-0.0421,13.5267,4.0839,-46.8232,
0.3440,0.0351,0.0434,1.0348,-0.0511,0.0069,0.1105,-0.0082,0.0739,-0.0421,13.5267,4.0839,-46.8232,
0.3450,0.0351,0.0434,1.0348,-0.0511,0.0069,0.1105,-0.0085,-0.0553,-0.0695,13.5267,4.0839,-46.8232,
0.3460,0.0282,0.0526,1.0372,-0.0511,0.0069,0.1105,-0.0085,-0.0553,-0.0695,13.5267,4.0839,-46.8232,
0.3460,0.0282,0.0526,1.0372,-0.0511,0.0069,0.1105,-0.0085,-0.0553,-0.0695,13.5933,4.0861,-46.8283,
0.3770,0.0635,0.0555,1.0118,-0.0511,0.0069,0.1105,-0.0085,-0.0553,-0.0695,13.5933,4.0861,-46.8283,
0.3840,0.0721,0.0791,0.9975,-0.0511,0.0069,0.1105,-0.0085,-0.0553,-0.0695,13.5933,4.0861,-46.8283,
0.3850,0.0721,0.0791,0.9975,-0.0511,0.0069,0.1105,-0.0039,-0.0632,-0.0259,13.5933,4.0861,-46.8283,
0.3860,0.0721,0.0791,0.9975,0.0475,-0.0408,0.0346,-0.0039,-0.0632,-0.0259,13.5933,4.0861,-46.8283,
0.4040,0.0519,0.0857,1.0151,0.0475,-0.0408,0.0346,-0.0039,-0.0632,-0.0259,13.5933,4.0861,-46.8283,
0.4050,0.0519,0.0857,1.0151,0.0475,-0.0408,0.0346,-0.0039,-0.0632,-0.0259,13.5956,4.1155,-46.8451,
0.4410,0.0519,0.0857,1.0151,0.0410,0.0668,-0.0739,-0.0039,-0.0632,-0.0259,13.5956,4.1155,-46.8451,
0.4420,0.0519,0.0857,1.0151,0.0410,0.0668,-0.0739,-0.0234,-0.0147,0.0279,13.5956,4.1155,-46.8451,
0.4430,0.0327,0.0512,1.0583,0.0410,0.0668,-0.0739,-0.0234,-0.0147,0.0279,13.5956,4.1155,-46.8451,
0.4430,0.0405,0.0212,1.0685,0.0410,0.0668,-0.0739,-0.0234,-0.0147,0.0279,13.5956,4.1155,-46.8451,
0.4630,0.0622,0.0363,1.0152,0.0410,0.0668,-0.0739,-0.0234,-0.0147,0.0279,13.5956,4.1155,-46.8451,
0.4640,0.0622,0.0363,1.0152,0.0410,0.0668,-0.0739,0.0138,-0.0666,0.0126,13.5956,4.1155,-46.8451,
0.4650,0.0622,0.0363,1.0152,0.0410,0.0668,-0.0739,0.0138,-0.0666,0.0126,13.5002,4.1239,-46.8680,
0.5100,0.0622,0.0363,1.0152,0.0410,0.0668,-0.0739,-0.0027,-0.0177,-0.0207,13.5002,4.1239,-46.8680,
0.5110,0.0484,0.0742,1.0073,0.0410,0.0668,-0.0739,-0.0027,-0.0177,-0.0207,13.5002,4.1239,-46.8680,
0.5120,0.0300,0.1003,0.9870,0.0410,0.0668,-0.0739,-0.0027,-0.0177,-0.0207,13.5002,4.1239,-46.8680,
0.5180,0.0318,0.0846,1.0073,0.0410,0.0668,-0.0739,-0.0027,-0.0177,-0.0207,13.5002,4.1239,-46.8680,
0.5190,0.0318,0.0846,1.0073,-0.0305,-0.0269,0.1770,-0.0027,-0.0177,-0.0207,13.5002,4.1239,-46.8680,
0.5440,0.0318,0.0846,1.0073,-0.0305,-0.0269,0.1770,-0.0668,-0.0483,0.0236,13.5002,4.1239,-46.8680,
0.5450,0.0645,0.0342,1.0102,-0.0305,-0.0269,0.1770,-0.0668,-0.0483,0.0236,13.5002,4.1239,-46.8680,
0.5460,0.0645,0.0342,1.0102,-0.0305,-0.0269,0.1770,-0.0668,-0.0483,0.0236,13.4291,4.1436,-46.8769,
0.5770,0.0767,0.0296,1.0080,-0.0305,-0.0269,0.1770,-0.0668,-0.0483,0.0236,13.4291,4.1436,-46.8769,
0.5780,0.0767,0.0296,1.0080,-0.0913,0.3050,-0.2120,-0.0668,-0.0483,0.0236,13.4291,4.1436,-46.8769,
0.5790,0.0489,0.0667,1.0079,-0.0913,0.3050,-0.2120,-0.0668,-0.0483,0.0236,13.4291,4.1436,-46.8769,
0.5790,0.0489,0.0667,1.0079,-0.0913,0.3050,-0.2120,-0.1236,-0.0580,-0.0601,13.4291,4.1436,-46.8769,
0.6040,0.0489,0.0667,1.0079,-0.0913,0.3050,-0.2120,-0.1236,-0.0580,-0.0601,13.4116,4.2076,-46.8825,
0.6050,0.0143,0.0695,1.0486,-0.0913,0.3050,-0.2120,-0.1236,-0.0580,-0.0601,13.4116,4.2076,-46.8825,
0.6440,0.0143,0.0695,1.0486,-0.0913,0.3050,-0.2120,-0.0851,-0.0541,-0.0243,13.4116,4.2076,-46.8825,
0.6450,0.0360,0.0239,1.0692,-0.0913,0.3050,-0.2120,-0.0851,-0.0541,-0.0243,13.4116,4.2076,-46.8825,
0.6460,0.0928,-0.0062,1.0530,-0.0913,0.3050,-0.2120,-0.0851,-0.0541,-0.0243,13.4116,4.2076,-46.8825,
0.6550,0.1014,0.0074,1.0312,-0.0913,0.3050,-0.2120,-0.0851,-0.0541,-0.0243,13.4116,4.2076,-46.8825,
0.6560,0.1014,0.0074,1.0312,-0.0913,0.3050,-0.2120,0.0056,-0.0651,0.0642,13.4116,4.2076,-46.8825,
0.6570,0.1014,0.0074,1.0312,0.0231,0.0089,-0.0845,0.0056,-0.0651,0.0642,13.4116,4.2076,-46.8825,
0.6630,0.1014,0.0074,1.0312,0.0231,0.0089,-0.0845,0.0056,-0.0651,0.0642,13.3785,4.2870,-46.9042,
0.7110,0.1014,0.0074,1.0312,0.0231,0.0089,-0.0845,0.0795,0.0067,0.1052,13.3785,4.2870,-46.9042,
0.7120,0.0589,0.0254,1.0449,0.0231,0.0089,-0.0845,0.0795,0.0067,0.1052,13.3785,4.2870,-46.9042,
0.7120,0.0227,0.0421,1.0286,0.0231,0.0089,-0.0845,0.0795,0.0067,0.1052,13.3785,4.2870,-46.9042,
0.7130,0.0440,0.0763,1.0145,0.0231,0.0089,-0.0845,0.0795,0.0067,0.1052,13.3785,4.2870,-46.9042,
0.7140,0.0440,0.0763,1.0145,0.0873,-0.2987,0.2727,0.0795,0.0067,0.1052,13.3785,4.2870,-46.9042,
0.7440,0.0440,0.0763,1.0145,0.0873,-0.2987,0.2727,0.0047,-0.0605,0.2017,13.3785,4.2870,-46.9042,
0.7450,0.0831,0.0987,1.0239,0.0873,-0.2987,0.2727,0.0047,-0.0605,0.2017,13.3785,4.2870,-46.9042,
0.7460,0.0831,0.0987,1.0239,0.0873,-0.2987,0.2727,0.0047,-0.0605,0.2017,13.3197,4.3457,-46.9375,
0.7760,0.0831,0.0987,1.0239,0.0873,-0.2987,0.2727,-0.0140,-0.0281,0.1940,13.3197,4.3457,-46.9375,
0.7770,0.0739,0.0920,1.0268,0.0873,-0.2987,0.2727,-0.0140,-0.0281,0.1940,13.3197,4.3457,-46.9375,
0.7780,0.0721,0.0681,1.0065,0.0873,-0.2987,0.2727,-0.0140,-0.0281,0.1940,13.3197,4.3457,-46.9375,
0.7920,0.0827,0.0631,1.0043,0.0873,-0.2987,0.2727,-0.0140,-0.0281,0.1940,13.3197,4.3457,-46.9375,
0.7930,0.0827,0.0631,1.0043,-0.1138,0.1075,0.0265,-0.0140,-0.0281,0.1940,13.3197,4.3457,-46.9375,
0.8040,0.0827,0.0631,1.0043,-0.1138,0.1075,0.0265,-0.0140,-0.0281,0.1940,13.2043,4.3600,-46.9790,
0.8430,0.0732,0.0771,1.0356,-0.1138,0.1075,0.0265,-0.0140,-0.0281,0.1940,13.2043,4.3600,-46.9790,
0.8450,0.0732,0.0771,1.0356,-0.1138,0.1075,0.0265,-0.1200,0.0180,0.1543,13.2043,4.3600,-46.9790,
0.8450,0.0371,0.0647,1.0212,-0.1138,0.1075,0.0265,-0.1200,0.0180,0.1543,13.2043,4.3600,-46.9790,
0.8500,0.0371,0.0647,1.0212,-0.1138,0.1075,0.0265,-0.1200,-0.0101,0.1272,13.2043,4.3600,-46.9790,
0.8510,0.0398,0.0329,1.0359,-0.1138,0.1075,0.0265,-0.1200,-0.0101,0.1272,13.2043,4.3600,-46.9790,
0.8520,0.0398,0.0329,1.0359,0.1638,0.3843,-0.0895,-0.1200,-0.0101,0.1272,13.2043,4.3600,-46.9790,
0.8640,0.0398,0.0329,1.0359,0.1638,0.3843,-0.0895,-0.1200,-0.0101,0.1272,13.0742,4.4027,-47.0423,
0.9120,0.0887,0.0229,1.0495,0.1638,0.3843,-0.0895,-0.1200,-0.0101,0.1272,13.0742,4.4027,-47.0423,
0.9130,0.1088,0.0347,1.0388,0.1638,0.3843,-0.0895,-0.1200,-0.0101,0.1272,13.0742,4.4027,-47.0423,
0.9140,0.0834,0.0296,0.9825,0.1638,0.3843,-0.0895,-0.1200,-0.0101,0.1272,13.0742,4.4027,-47.0423,
0.9140,0.0834,0.0296,0.9825,0.1638,0.3843,-0.0895,-0.1945,0.0186,0.0850,13.0742,4.4027,-47.0423,
0.9280,0.0834,0.0296,0.9825,0.1638,0.3843,-0.0895,-0.1670,0.0223,0.0337,13.0742,4.4027,-47.0423,
0.9290,0.0496,0.0207,0.9954,0.1638,0.3843,-0.0895,-0.1670,0.0223,0.0337,13.0742,4.4027,-47.0423,
0.9290,0.0496,0.0207,0.9954,-0.0469,0.2306,0.0765,-0.1670,0.0223,0.0337,13.0742,4.4027,-47.0423,
0.9440,0.0496,0.0207,0.9954,-0.0469,0.2306,0.0765,-0.1670,0.0223,0.0337,12.9550,4.4973,-47.0550,
0.9770,0.0355,0.0251,0.9891,-0.0469,0.2306,0.0765,-0.1670,0.0223,0.0337,12.9550,4.4973,-47.0550,
0.9770,0.0355,0.0251,0.9891,-0.0469,0.2306,0.0765,-0.2088,0.0614,0.0245,12.9550,4.4973,-47.0550,
0.9780,0.0269,0.0262,1.0286,-0.0469,0.2306,0.0765,-0.2088,0.0614,0.0245,12.9550,4.4973,-47.0550,
0.9870,0.0269,0.0262,1.0286,0.2489,0.1123,-0.1244,-0.2088,0.0614,0.0245,12.9550,4.4973,-47.0550,
0.9880,0.0314,0.0009,1.0738,0.2489,0.1123,-0.1244,-0.2088,0.0614,0.0245,12.9550,4.4973,-47.0550,
1.0040,0.0314,0.0009,1.0738,0.2489,0.1123,-0.1244,-0.2088,0.0614,0.0245,12.9164,4.6735,-47.0528,
1.0430,0.0314,0.0009,1.0738,0.2489,0.1123,-0.1244,-0.1954,0.0348,-0.0601,12.9164,4.6735,-47.0528,
1.0440,0.0421,-0.0307,1.0641,0.2489,0.1123,-0.1244,-0.1954,0.0348,-0.0601,12.9164,4.6735,-47.0528,
1.0450,0.0316,-0.0265,1.0439,0.2489,0.1123,-0.1244,-0.1954,0.0348,-0.0601,12.9164,4.6735,-47.0528,
1.0640,0.0074,0.0065,1.0264,0.2489,0.1123,-0.1244,-0.1954,0.0348,-0.0601,12.9164,4.6735,-47.0528,
1.0650,0.0074,0.0065,1.0264,0.2489,0.1123,-0.1244,-0.1157,-0.0241,-0.0815,12.9164,4.6735,-47.0528,
1.0660,0.0074,0.0065,1.0264,0.2489,0.1123,-0.1244,-0.1157,-0.0241,-0.0815,12.8841,4.9084,-47.0315,
1.0660,-0.0006,0.0240,1.0253,0.2489,0.1123,-0.1244,-0.1157,-0.0241,-0.0815,12.8841,4.9084,-47.0315,
1.0670,-0.0006,0.0240,1.0253,-0.2310,0.0202,0.1048,-0.1157,-0.0241,-0.0815,12.8841,4.9084,-47.0315,
1.1090,0.0129,0.0236,1.0401,-0.2310,0.0202,0.1048,-0.1157,-0.0241,-0.0815,12.8841,4.9084,-47.0315,
1.1100,0.0495,0.0111,1.0363,-0.2310,0.0202,0.1048,-0.1157,-0.0241,-0.0815,12.8841,4.9084,-47.0315,
1.1110,0.0495,0.0111,1.0363,-0.2310,0.0202,0.1048,-0.0595,-0.0580,-0.0140,12.8841,4.9084,-47.0315,
1.1240,0.0495,0.0111,1.0363,-0.4016,-0.0892,0.0832,-0.0595,-0.0580,-0.0140,12.8841,4.9084,-47.0315,
1.1250,0.0495,0.0111,1.0363,-0.4016,-0.0892,0.0832,-0.0424,-0.1130,-0.0204,12.8841,4.9084,-47.0315,
1.1260,0.0857,-0.0066,1.0206,-0.4016,-0.0892,0.0832,-0.0424,-0.1130,-0.0204,12.8841,4.9084,-47.0315,
1.1430,0.1041,-0.0016,0.9943,-0.4016,-0.0892,0.0832,-0.0424,-0.1130,-0.0204,12.8841,4.9084,-47.0315,
1.1440,0.1041,-0.0016,0.9943,-0.4016,-0.0892,0.0832,-0.0424,-0.1130,-0.0204,12.7897,5.1398,-47.0450,
1.1760,0.1097,0.0361,0.9773,-0.4016,-0.0892,0.0832,-0.0424,-0.1130,-0.0204,12.7897,5.1398,-47.0450,
1.1770,0.1097,0.0361,0.9773,-0.4016,-0.0892,0.0832,-0.0225,0.0131,0.0099,12.7897,5.1398,-47.0450,
1.2020,0.1097,0.0361,0.9773,-0.4016,-0.0892,0.0832,-0.1758,0.0562,0.0795,12.7897,5.1398,-47.0450,
1.2030,0.1144,0.0494,0.9667,-0.4016,-0.0892,0.0832,-0.1758,0.0562,0.0795,12.7897,5.1398,-47.0450,
1.2040,0.1025,0.0379,1.0233,-0.4016,-0.0892,0.0832,-0.1758,0.0562,0.0795,12.7897,5.1398,-47.0450,
1.2040,0.1025,0.0379,1.0233,0.0182,0.0815,0.0080,-0.1758,0.0562,0.0795,12.7897,5.1398,-47.0450,
1.2070,0.1025,0.0379,1.0233,0.0182,0.0815,0.0080,-0.1758,0.0562,0.0795,12.7175,5.3585,-47.0244,
1.2430,0.1025,0.0379,1.0233,0.0182,0.0815,0.0080,-0.2815,0.0797,0.0780,12.7175,5.3585,-47.0244,
1.2440,0.0865,0.0129,1.0563,0.0182,0.0815,0.0080,-0.2815,0.0797,0.0780,12.7175,5.3585,-47.0244,
1.2450,0.0915,-0.0317,1.0830,0.0182,0.0815,0.0080,-0.2815,0.0797,0.0780,12.7175,5.3585,-47.0244,
1.2600,0.0915,-0.0317,1.0830,0.5211,0.4626,-0.3320,-0.2815,0.0797,0.0780,12.7175,5.3585,-47.0244,
1.2620,0.0938,-0.0944,1.1002,0.5211,0.4626,-0.3320,-0.2815,0.0797,0.0780,12.7175,5.3585,-47.0244,
1.2650,0.0938,-0.0944,1.1002,0.5211,0.4626,-0.3320,-0.2815,0.0797,0.0780,12.7000,5.6931,-46.9634,
1.3100,0.0938,-0.0944,1.1002,0.5211,0.4626,-0.3320,-0.0836,0.1127,0.0227,12.7000,5.6931,-46.9634,
1.3110,0.0749,-0.1426,1.0829,0.5211,0.4626,-0.3320,-0.0836,0.1127,0.0227,12.7000,5.6931,-46.9634,
1.3120,0.0442,-0.1414,1.0567,0.5211,0.4626,-0.3320,-0.0836,0.1127,0.0227,12.7000,5.6931,-46.9634,
1.3380,0.0103,-0.0812,1.0321,0.5211,0.4626,-0.3320,-0.0836,0.1127,0.0227,12.7000,5.6931,-46.9634,
1.3390,0.0048,0.0028,1.0093,0.5211,0.4626,-0.3320,-0.0836,0.1127,0.0227,12.7000,5.6931,-46.9634,
1.3400,0.0048,0.0028,1.0093,0.3952,-0.5022,0.5327,-0.0836,0.1127,0.0227,12.7000,5.6931,-46.9634,
1.3410,0.0048,0.0028,1.0093,0.3952,-0.5022,0.5327,0.1891,0.1313,0.0175,12.7000,5.6931,-46.9634,
1.3440,0.0048,0.0028,1.0093,0.3952,-0.5022,0.5327,0.1891,0.1313,0.0175,12.8094,6.0472,-46.8946,
1.3770,0.0233,0.0664,0.9832,0.3952,-0.5022,0.5327,0.1891,0.1313,0.0175,12.8094,6.0472,-46.8946,
1.3780,0.0456,0.0893,0.9871,0.3952,-0.5022,0.5327,0.1891,0.1313,0.0175,12.8094,6.0472,-46.8946,
1.3790,0.0456,0.0893,0.9871,0.3952,-0.5022,0.5327,0.2777,0.1145,0.1125,12.8094,6.0472,-46.8946,
1.3990,0.0456,0.0893,0.9871,0.3952,-0.5022,0.5327,0.1601,0.1173,0.1223,12.8094,6.0472,-46.8946,
1.4000,0.0589,0.0731,0.9968,0.3952,-0.5022,0.5327,0.1601,0.1173,0.1223,12.8094,6.0472,-46.8946,
1.4000,0.0589,0.0731,0.9968,-0.1294,-0.8889,0.1145,0.1601,0.1173,0.1223,12.8094,6.0472,-46.8946,
1.4040,0.0589,0.0731,0.9968,-0.1294,-0.8889,0.1145,0.1601,0.1173,0.1223,12.9239,6.2690,-46.8077,
1.4180,0.0618,0.0355,1.0166,-0.1294,-0.8889,0.1145,0.1601,0.1173,0.1223,12.9239,6.2690,-46.8077,
1.4430,0.0501,0.0070,1.0144,-0.1294,-0.8889,0.1145,0.1601,0.1173,0.1223,12.9239,6.2690,-46.8077,
1.4440,0.0501,0.0070,1.0144,-0.1294,-0.8889,0.1145,0.0276,0.1347,0.0545,12.9239,6.2690,-46.8077,
1.4650,0.0501,0.0070,1.0144,-0.1294,-0.8889,0.1145,0.0276,0.1347,0.0545,13.1090,6.3823,-46.7451,
1.4660,0.0325,-0.0016,1.0338,-0.1294,-0.8889,0.1145,0.0276,0.1347,0.0545,13.1090,6.3823,-46.7451,
1.4760,0.0181,-0.0028,1.0263,-0.1294,-0.8889,0.1145,0.0276,0.1347,0.0545,13.1090,6.3823,-46.7451,
1.4770,0.0181,-0.0028,1.0263,-0.1294,-0.8889,0.1145,-0.0353,0.1741,0.0349,13.1090,6.3823,-46.7451,
1.4780,0.0181,-0.0028,1.0263,0.1544,0.6152,-0.3279,-0.0353,0.1741,0.0349,13.1090,6.3823,-46.7451,
1.5090,0.0147,-0.0057,1.0371,0.1544,0.6152,-0.3279,-0.0353,0.1741,0.0349,13.1090,6.3823,-46.7451,
1.5330,0.0217,-0.0138,1.0365,0.1544,0.6152,-0.3279,-0.0353,0.1741,0.0349,13.1090,6.3823,-46.7451,
1.5340,0.0217,-0.0138,1.0365,0.1544,0.6152,-0.3279,-0.0042,0.1448,0.0639,13.1090,6.3823,-46.7451,
1.5340,0.0253,-0.0155,1.0328,0.1544,0.6152,-0.3279,-0.0042,0.1448,0.0639,13.1090,6.3823,-46.7451,
1.5350,0.0253,-0.0155,1.0328,0.1656,-0.0434,-0.0229,-0.0042,0.1448,0.0639,13.1090,6.3823,-46.7451,
1.5430,0.0253,-0.0155,1.0328,0.1656,-0.0434,-0.0229,-0.0042,0.1448,0.0639,13.3517,6.4140,-46.6789,
1.5760,0.0253,-0.0155,1.0328,0.1656,-0.0434,-0.0229,0.0294,0.1283,0.0407,13.3517,6.4140,-46.6789,
1.5770,0.0250,-0.0071,1.0319,0.1656,-0.0434,-0.0229,0.0294,0.1283,0.0407,13.3517,6.4140,-46.6789,
1.5770,0.0237,0.0066,1.0218,0.1656,-0.0434,-0.0229,0.0294,0.1283,0.0407,13.3517,6.4140,-46.6789,
1.6040,0.0237,0.0066,1.0218,0.1656,-0.0434,-0.0229,0.0404,0.0660,0.0273,13.3517,6.4140,-46.6789,
1.6050,0.0217,0.0173,1.0256,0.1656,-0.0434,-0.0229,0.0404,0.0660,0.0273,13.3517,6.4140,-46.6789,
1.6070,0.0217,0.0173,1.0256,0.1656,-0.0434,-0.0229,0.0404,0.0660,0.0273,13.6165,6.3678,-46.6057,
1.6110,0.0136,0.0187,1.0224,0.1656,-0.0434,-0.0229,0.0404,0.0660,0.0273,13.6165,6.3678,-46.6057,
1.6110,0.0136,0.0187,1.0224,0.0558,-0.2149,0.0875,0.0404,0.0660,0.0273,13.6165,6.3678,-46.6057,
1.6440,0.0079,0.0153,1.0178,0.0558,-0.2149,0.0875,0.0404,0.0660,0.0273,13.6165,6.3678,-46.6057,
1.6450,0.0079,0.0153,1.0178,0.0558,-0.2149,0.0875,0.0193,0.0785,0.0279,13.6165,6.3678,-46.6057,
1.6650,-0.0050,0.0162,1.0197,0.0558,-0.2149,0.0875,0.0193,0.0785,0.0279,13.6165,6.3678,-46.6057,
1.6660,-0.0050,0.0162,1.0197,0.0558,-0.2149,0.0875,0.0193,0.0785,0.0279,13.9642,6.2757,-46.5010,
1.6700,-0.0050,0.0162,1.0197,0.0824,0.0058,-0.0283,0.0193,0.0785,0.0279,13.9642,6.2757,-46.5010,
1.6710,-0.0050,0.0162,1.0197,0.0824,0.0058,-0.0283,0.0010,0.0556,0.0227,13.9642,6.2757,-46.5010,
1.6720,-0.0104,0.0158,1.0261,0.0824,0.0058,-0.0283,0.0010,0.0556,0.0227,13.9642,6.2757,-46.5010,
1.7100,-0.0071,0.0109,1.0201,0.0824,0.0058,-0.0283,0.0010,0.0556,0.0227,13.9642,6.2757,-46.5010,
1.7110,-0.0071,0.0109,1.0201,0.0824,0.0058,-0.0283,0.0089,0.0223,0.0203,13.9642,6.2757,-46.5010,
1.7110,-0.0010,0.0037,1.0173,0.0824,0.0058,-0.0283,0.0089,0.0223,0.0203,13.9642,6.2757,-46.5010,
1.7440,0.0039,0.0035,1.0302,0.0824,0.0058,-0.0283,0.0089,0.0223,0.0203,13.9642,6.2757,-46.5010,
1.7450,0.0039,0.0035,1.0302,0.0824,0.0058,-0.0283,0.0089,0.0223,0.0203,14.3020,6.1753,-46.4258,
1.7480,0.0039,0.0035,1.0302,-0.1353,0.0321,-0.0488,0.0089,0.0223,0.0203,14.3020,6.1753,-46.4258,
1.7490,0.0039,0.0035,1.0302,-0.1353,0.0321,-0.0488,0.0175,0.0073,0.0120,14.3020,6.1753,-46.4258,
1.7500,0.0079,0.0065,1.0311,-0.1353,0.0321,-0.0488,0.0175,0.0073,0.0120,14.3020,6.1753,-46.4258,
1.7760,0.0098,0.0097,1.0242,-0.1353,0.0321,-0.0488,0.0175,0.0073,0.0120,14.3020,6.1753,-46.4258,
1.8030,0.0079,0.0104,1.0283,-0.1353,0.0321,-0.0488,0.0175,0.0073,0.0120,14.3020,6.1753,-46.4258,
1.8040,0.0079,0.0104,1.0283,-0.1353,0.0321,-0.0488,0.0175,0.0073,0.0120,14.6214,5.9568,-46.3891,
1.8050,0.0079,0.0104,1.0283,-0.1353,0.0321,-0.0488,0.0248,0.0302,0.0135,14.6214,5.9568,-46.3891,
1.8060,0.0049,0.0093,1.0214,-0.1353,0.0321,-0.0488,0.0248,0.0302,0.0135,14.6214,5.9568,-46.3891,
1.8060,0.0049,0.0093,1.0214,-0.0639,-0.0931,-0.0144,0.0248,0.0302,0.0135,14.6214,5.9568,-46.3891,
1.8430,0.0049,0.0093,1.0214,-0.0639,-0.0931,-0.0144,0.0508,0.0006,0.0099,14.6214,5.9568,-46.3891,
1.8440,0.0005,0.0083,1.0074,-0.0639,-0.0931,-0.0144,0.0508,0.0006,0.0099,14.6214,5.9568,-46.3891,
1.8650,0.0021,0.0155,1.0321,-0.0639,-0.0931,-0.0144,0.0508,0.0006,0.0099,14.6214,5.9568,-46.3891,
1.8660,0.0021,0.0155,1.0321,-0.0639,-0.0931,-0.0144,0.0508,0.0006,0.0099,14.8663,5.7446,-46.3200,
1.8850,0.0059,0.0201,1.0317,-0.0639,-0.0931,-0.0144,0.0508,0.0006,0.0099,14.8663,5.7446,-46.3200,
1.8860,0.0059,0.0201,1.0317,-0.0639,-0.0931,-0.0144,-0.0201,-0.0138,0.0071,14.8663,5.7446,-46.3200,
1.8860,0.0059,0.0201,1.0317,-0.0315,-0.0434,-0.0359,-0.0201,-0.0138,0.0071,14.8663,5.7446,-46.3200,
1.8870,0.0134,0.0154,1.0245,-0.0315,-0.0434,-0.0359,-0.0201,-0.0138,0.0071,14.8663,5.7446,-46.3200,
1.9090,0.0171,0.0116,1.0221,-0.0315,-0.0434,-0.0359,-0.0201,-0.0138,0.0071,14.8663,5.7446,-46.3200,
1.9100,0.0171,0.0116,1.0221,-0.0315,-0.0434,-0.0359,0.0062,-0.0183,0.0038,14.8663,5.7446,-46.3200,
1.9430,0.0200,0.0092,1.0239,-0.0315,-0.0434,-0.0359,0.0062,-0.0183,0.0038,14.8663,5.7446,-46.3200,
1.9450,0.0215,0.0096,1.0285,-0.0315,-0.0434,-0.0359,0.0062,-0.0183,0.0038,14.8663,5.7446,-46.3200,
1.9460,0.0215,0.0096,1.0285,-0.0348,0.0152,-0.0026,0.0062,-0.0183,0.0038,14.8663,5.7446,-46.3200,
1.9470,0.0215,0.0096,1.0285,-0.0348,0.0152,-0.0026,0.0053,0.0049,0.0077,14.8663,5.7446,-46.3200,
1.9470,0.0215,0.0096,1.0285,-0.0348,0.0152,-0.0026,0.0053,0.0049,0.0077,15.1100,5.6510,-46.2563,
1.9760,0.0181,0.0118,1.0304,-0.0348,0.0152,-0.0026,0.0053,0.0049,0.0077,15.1100,5.6510,-46.2563,
2.0050,0.0181,0.0118,1.0304,-0.0348,0.0152,-0.0026,0.0111,0.0006,0.0062,15.1100,5.6510,-46.2563,
2.0050,0.0126,0.0158,1.0244,-0.0348,0.0152,-0.0026,0.0111,0.0006,0.0062,15.1100,5.6510,-46.2563,
2.0060,0.0065,0.0209,1.0217,-0.0348,0.0152,-0.0026,0.0111,0.0006,0.0062,15.1100,5.6510,-46.2563,
2.0080,0.0065,0.0209,1.0217,-0.0348,0.0152,-0.0026,0.0111,0.0006,0.0062,15.2709,5.5903,-46.1989,
2.0220,0.0065,0.0209,1.0217,-0.0348,0.0152,-0.0026,0.0013,0.0156,0.0059,15.2709,5.5903,-46.1989,
2.0220,0.0015,0.0206,1.0189,-0.0348,0.0152,-0.0026,0.0013,0.0156,0.0059,15.2709,5.5903,-46.1989,
2.0230,0.0015,0.0206,1.0189,0.0925,-0.0401,-0.0039,0.0013,0.0156,0.0059,15.2709,5.5903,-46.1989,
2.0440,0.0026,0.0171,1.0236,0.0925,-0.0401,-0.0039,0.0013,0.0156,0.0059,15.2709,5.5903,-46.1989,
2.0640,0.0054,0.0127,1.0294,0.0925,-0.0401,-0.0039,0.0013,0.0156,0.0059,15.2709,5.5903,-46.1989,
2.0650,0.0054,0.0127,1.0294,0.0925,-0.0401,-0.0039,-0.0091,-0.0040,0.0068,15.2709,5.5903,-46.1989,
2.0650,0.0054,0.0127,1.0294,0.0925,-0.0401,-0.0039,-0.0091,-0.0040,0.0068,15.3712,5.5402,-46.1746,
2.0790,0.0054,0.0127,1.0294,-0.0170,0.0379,-0.0293,-0.0091,-0.0040,0.0068,15.3712,5.5402,-46.1746,
2.0810,0.0045,0.0094,1.0222,-0.0170,0.0379,-0.0293,-0.0091,-0.0040,0.0068,15.3712,5.5402,-46.1746,
2.1100,0.0073,0.0091,1.0285,-0.0170,0.0379,-0.0293,-0.0091,-0.0040,0.0068,15.3712,5.5402,-46.1746,
2.1110,0.0073,0.0091,1.0285,-0.0170,0.0379,-0.0293,-0.0066,0.0030,0.0044,15.3712,5.5402,-46.1746,
2.1430,0.0073,0.0091,1.0285,-0.0170,0.0379,-0.0293,0.0007,0.0024,0.0050,15.3712,5.5402,-46.1746,
2.1450,0.0050,0.0080,1.0183,-0.0170,0.0379,-0.0293,0.0007,0.0024,0.0050,15.3712,5.5402,-46.1746,
2.1450,0.0085,0.0087,1.0263,-0.0170,0.0379,-0.0293,0.0007,0.0024,0.0050,15.3712,5.5402,-46.1746,
2.1460,0.0085,0.0087,1.0263,-0.0170,0.0379,-0.0293,0.0007,0.0024,0.0050,15.4894,5.4891,-46.1865,
2.1570,0.0085,0.0087,1.0263,-0.0509,-0.0127,0.0162,0.0007,0.0024,0.0050,15.4894,5.4891,-46.1865,
2.1590,0.0103,0.0107,1.0245,-0.0509,-0.0127,0.0162,0.0007,0.0024,0.0050,15.4894,5.4891,-46.1865,
2.1770,0.0103,0.0107,1.0245,-0.0509,-0.0127,0.0162,-0.0097,-0.0086,0.0038,15.4894,5.4891,-46.1865,
2.1780,0.0127,0.0130,1.0313,-0.0509,-0.0127,0.0162,-0.0097,-0.0086,0.0038,15.4894,5.4891,-46.1865,
2.2040,0.0127,0.0130,1.0313,-0.0509,-0.0127,0.0162,-0.0097,-0.0086,0.0038,15.5254,5.4334,-46.2056,
2.2060,0.0158,0.0132,1.0197,-0.0509,-0.0127,0.0162,-0.0097,-0.0086,0.0038,15.5254,5.4334,-46.2056,
2.2160,0.0158,0.0132,1.0197,-0.0108,-0.0375,-0.0368,-0.0097,-0.0086,0.0038,15.5254,5.4334,-46.2056,
2.2170,0.0159,0.0137,1.0227,-0.0108,-0.0375,-0.0368,-0.0097,-0.0086,0.0038,15.5254,5.4334,-46.2056,
2.2180,0.0159,0.0137,1.0227,-0.0108,-0.0375,-0.0368,-0.0079,0.0064,0.0065,15.5254,5.4334,-46.2056,
2.2440,0.0150,0.0140,1.0238,-0.0108,-0.0375,-0.0368,-0.0079,0.0064,0.0065,15.5254,5.4334,-46.2056,
2.2630,0.0099,0.0130,1.0177,-0.0108,-0.0375,-0.0368,-0.0079,0.0064,0.0065,15.5254,5.4334,-46.2056,
2.2640,0.0099,0.0130,1.0177,-0.0108,-0.0375,-0.0368,-0.0079,0.0064,0.0065,15.5232,5.3969,-46.2077,
2.2650,0.0099,0.0130,1.0177,-0.0108,-0.0375,-0.0368,-0.0060,0.0104,0.0071,15.5232,5.3969,-46.2077,
2.2950,0.0034,0.0144,1.0247,-0.0108,-0.0375,-0.0368,-0.0060,0.0104,0.0071,15.5232,5.3969,-46.2077,
2.2960,0.0034,0.0144,1.0247,-0.0108,-0.0375,-0.0368,-0.0063,0.0238,0.0154,15.5232,5.3969,-46.2077,
2.2970,0.0059,0.0199,1.0288,-0.0108,-0.0375,-0.0368,-0.0063,0.0238,0.0154,15.5232,5.3969,-46.2077,
2.2980,0.0059,0.0199,1.0288,0.0623,0.0089,-0.0076,-0.0063,0.0238,0.0154,15.5232,5.3969,-46.2077,
2.3430,0.0059,0.0199,1.0288,0.0623,0.0089,-0.0076,-0.0063,0.0238,0.0154,15.5165,5.3807,-46.1738,
2.3440,0.0063,0.0193,1.0175,0.0623,0.0089,-0.0076,-0.0063,0.0238,0.0154,15.5165,5.3807,-46.1738,
2.3450,0.0004,0.0169,1.0207,0.0623,0.0089,-0.0076,-0.0063,0.0238,0.0154,15.5165,5.3807,-46.1738,
2.3460,0.0004,0.0169,1.0207,0.0623,0.0089,-0.0076,-0.0045,0.0406,0.0096,15.5165,5.3807,-46.1738,
2.3520,0.0002,0.0131,1.0359,0.0623,0.0089,-0.0076,-0.0045,0.0406,0.0096,15.5165,5.3807,-46.1738,
2.3530,0.0002,0.0131,1.0359,0.0160,0.0333,-0.0167,-0.0045,0.0406,0.0096,15.5165,5.3807,-46.1738,
2.3770,0.0002,0.0131,1.0359,0.0160,0.0333,-0.0167,-0.0198,0.0403,-0.0008,15.5165,5.3807,-46.1738,
2.3780,0.0044,0.0114,1.0208,0.0160,0.0333,-0.0167,-0.0198,0.0403,-0.0008,15.5165,5.3807,-46.1738,
2.4040,0.0044,0.0114,1.0208,0.0160,0.0333,-0.0167,-0.0198,0.0403,-0.0008,15.5342,5.3834,-46.1719,
2.4050,0.0073,0.0126,1.0216,0.0160,0.0333,-0.0167,-0.0198,0.0403,-0.0008,15.5342,5.3834,-46.1719,
2.4180,0.0056,0.0116,1.0219,0.0160,0.0333,-0.0167,-0.0198,0.0403,-0.0008,15.5342,5.3834,-46.1719,
2.4200,0.0056,0.0116,1.0219,0.0160,0.0333,-0.0167,-0.0066,0.0794,-0.0002,15.5342,5.3834,-46.1719,
2.4330,0.0056,0.0116,1.0219,0.0124,0.0261,-0.0080,-0.0066,0.0794,-0.0002,15.5342,5.3834,-46.1719,
2.4340,-0.0051,0.0021,1.0045,0.0124,0.0261,-0.0080,-0.0066,0.0794,-0.0002,15.5342,5.3834,-46.1719,
2.4660,-0.0051,0.0021,1.0045,0.0124,0.0261,-0.0080,0.0361,0.0376,-0.0106,15.5342,5.3834,-46.1719,
2.4670,-0.0087,0.0030,1.0070,0.0124,0.0261,-0.0080,0.0361,0.0376,-0.0106,15.5342,5.3834,-46.1719,
2.4680,-0.0087,0.0030,1.0070,0.0124,0.0261,-0.0080,0.0361,0.0376,-0.0106,15.5860,5.3932,-46.1582,
2.4890,-0.0009,0.0137,1.0302,0.0124,0.0261,-0.0080,0.0361,0.0376,-0.0106,15.5860,5.3932,-46.1582,
2.4900,-0.0009,0.0137,1.0302,0.0199,-0.0283,-0.0756,0.0361,0.0376,-0.0106,15.5860,5.3932,-46.1582,
2.4910,0.0032,0.0170,1.0346,0.0199,-0.0283,-0.0756,0.0361,0.0376,-0.0106,15.5860,5.3932,-46.1582,
2.4910,0.0032,0.0170,1.0346,0.0199,-0.0283,-0.0756,-0.0268,0.0137,-0.0048,15.5860,5.3932,-46.1582,
2.5100,0.0082,0.0103,1.0217,0.0199,-0.0283,-0.0756,-0.0268,0.0137,-0.0048,15.5860,5.3932,-46.1582,
2.5450,0.0106,0.0086,1.0257,0.0199,-0.0283,-0.0756,-0.0268,0.0137,-0.0048,15.5860,5.3932,-46.1582,
2.5460,0.0106,0.0086,1.0257,0.0199,-0.0283,-0.0756,-0.0011,-0.0116,-0.0057,15.5860,5.3932,-46.1582,
2.5460,0.0106,0.0086,1.0257,0.0199,-0.0283,-0.0756,-0.0011,-0.0116,-0.0057,15.6304,5.3925,-46.1501,
2.5670,0.0106,0.0086,1.0257,0.0199,-0.0283,-0.0756,-0.0033,0.0284,-0.0008,15.6304,5.3925,-46.1501,
2.5680,0.0068,0.0071,1.0222,0.0199,-0.0283,-0.0756,-0.0033,0.0284,-0.0008,15.6304,5.3925,-46.1501,
2.5680,0.0029,0.0058,1.0318,0.0199,-0.0283,-0.0756,-0.0033,0.0284,-0.0008,15.6304,5.3925,-46.1501,
2.5690,0.0029,0.0058,1.0318,-0.0075,-0.0059,-0.0046,-0.0033,0.0284,-0.0008,15.6304,5.3925,-46.1501,
2.6030,0.0029,0.0058,1.0318,-0.0075,-0.0059,-0.0046,-0.0033,0.0284,-0.0008,15.6751,5.3902,-46.0998,
2.6050,-0.0007,0.0096,1.0277,-0.0075,-0.0059,-0.0046,-0.0033,0.0284,-0.0008,15.6751,5.3902,-46.0998,
2.6260,-0.0007,0.0096,1.0277,-0.0075,-0.0059,-0.0046,0.0102,0.0146,-0.0014,15.6751,5.3902,-46.0998,
2.6270,-0.0034,0.0159,1.0225,-0.0075,-0.0059,-0.0046,0.0102,0.0146,-0.0014,15.6751,5.3902,-46.0998,
2.6280,-0.0045,0.0184,1.0196,-0.0075,-0.0059,-0.0046,0.0102,0.0146,-0.0014,15.6751,5.3902,-46.0998,
2.6280,-0.0045,0.0184,1.0196,0.0750,-0.0422,0.0149,0.0102,0.0146,-0.0014,15.6751,5.3902,-46.0998,
2.6660,-0.0045,0.0184,1.0196,0.0750,-0.0422,0.0149,0.0102,0.0146,-0.0014,15.7029,5.3850,-46.0533,
2.6680,-0.0045,0.0184,1.0196,0.0750,-0.0422,0.0149,0.0047,0.0226,0.0001,15.7029,5.3850,-46.0533,
2.6680,-0.0051,0.0181,1.0228,0.0750,-0.0422,0.0149,0.0047,0.0226,0.0001,15.7029,5.3850,-46.0533,
2.7040,-0.0051,0.0181,1.0228,0.0750,-0.0422,0.0149,-0.0024,0.0150,-0.0033,15.7029,5.3850,-46.0533,
2.7040,-0.0059,0.0160,1.0273,0.0750,-0.0422,0.0149,-0.0024,0.0150,-0.0033,15.7029,5.3850,-46.0533,
2.7050,-0.0059,0.0160,1.0273,-0.0137,0.0301,-0.0132,-0.0024,0.0150,-0.0033,15.7029,5.3850,-46.0533,
2.7060,-0.0037,0.0137,1.0275,-0.0137,0.0301,-0.0132,-0.0024,0.0150,-0.0033,15.7029,5.3850,-46.0533,
2.7060,-0.0021,0.0146,1.0153,-0.0137,0.0301,-0.0132,-0.0024,0.0150,-0.0033,15.7029,5.3850,-46.0533,
2.7460,-0.0021,0.0146,1.0153,-0.0137,0.0301,-0.0132,-0.0100,0.0140,0.0007,15.7029,5.3850,-46.0533,
2.7460,0.0044,0.0137,1.0383,-0.0137,0.0301,-0.0132,-0.0100,0.0140,0.0007,15.7029,5.3850,-46.0533,
2.7470,0.0040,0.0050,1.0119,-0.0137,0.0301,-0.0132,-0.0100,0.0140,0.0007,15.7029,5.3850,-46.0533,
2.7480,0.0040,0.0050,1.0119,-0.0137,0.0301,-0.0132,-0.0100,0.0140,0.0007,15.7334,5.4015,-46.0279,
2.7630,0.0021,0.0021,1.0341,-0.0137,0.0301,-0.0132,-0.0100,0.0140,0.0007,15.7334,5.4015,-46.0279,
2.7630,0.0021,0.0021,1.0341,-0.0137,0.0301,-0.0132,0.0037,0.0339,0.0077,15.7334,5.4015,-46.0279,
2.7640,0.0021,0.0021,1.0341,-0.0066,0.0271,-0.0038,0.0037,0.0339,0.0077,15.7334,5.4015,-46.0279,
2.8040,0.0006,0.0113,1.0188,-0.0066,0.0271,-0.0038,0.0037,0.0339,0.0077,15.7334,5.4015,-46.0279,
2.8050,0.0006,0.0113,1.0188,-0.0066,0.0271,-0.0038,0.0147,0.0122,0.0035,15.7334,5.4015,-46.0279,
2.8050,-0.0035,0.0177,1.0255,-0.0066,0.0271,-0.0038,0.0147,0.0122,0.0035,15.7334,5.4015,-46.0279,
2.8060,-0.0035,0.0177,1.0255,-0.0066,0.0271,-0.0038,0.0147,0.0122,0.0035,15.8606,5.3910,-45.9915,
2.8410,-0.0009,0.0152,1.0249,-0.0066,0.0271,-0.0038,0.0147,0.0122,0.0035,15.8606,5.3910,-45.9915,
2.8410,0.0001,0.0120,1.0235,-0.0066,0.0271,-0.0038,0.0147,0.0122,0.0035,15.8606,5.3910,-45.9915,
2.8420,0.0001,0.0120,1.0235,-0.0066,0.0271,-0.0038,-0.0051,0.0208,0.0071,15.8606,5.3910,-45.9915,
2.8430,0.0001,0.0120,1.0235,0.0688,-0.0468,0.0295,-0.0051,0.0208,0.0071,15.8606,5.3910,-45.9915,
2.8650,-0.0027,0.0137,1.0274,0.0688,-0.0468,0.0295,-0.0051,0.0208,0.0071,15.8606,5.3910,-45.9915,
2.8670,-0.0027,0.0137,1.0274,0.0688,-0.0468,0.0295,-0.0051,0.0208,0.0071,15.9707,5.3944,-45.9754,
2.9020,-0.0027,0.0137,1.0274,0.0688,-0.0468,0.0295,-0.0167,0.0079,0.0050,15.9707,5.3944,-45.9754,
2.9020,-0.0031,0.0153,1.0223,0.0688,-0.0468,0.0295,-0.0167,0.0079,0.0050,15.9707,5.3944,-45.9754,
2.9030,-0.0064,0.0141,1.0249,0.0688,-0.0468,0.0295,-0.0167,0.0079,0.0050,15.9707,5.3944,-45.9754,
2.9040,-0.0064,0.0141,1.0249,0.0319,0.0289,-0.0121,-0.0167,0.0079,0.0050,15.9707,5.3944,-45.9754,
2.9440,-0.0100,0.0133,1.0208,0.0319,0.0289,-0.0121,-0.0167,0.0079,0.0050,15.9707,5.3944,-45.9754,
2.9450,-0.0100,0.0133,1.0208,0.0319,0.0289,-0.0121,-0.0167,0.0079,0.0050,15.9850,5.3893,-45.9618,
2.9460,-0.0101,0.0140,1.0322,0.0319,0.0289,-0.0121,-0.0167,0.0079,0.0050,15.9850,5.3893,-45.9618,
2.9470,-0.0101,0.0140,1.0322,0.0319,0.0289,-0.0121,0.0056,0.0211,-0.0005,15.9850,5.3893,-45.9618,
2.9770,-0.0060,0.0169,1.0222,0.0319,0.0289,-0.0121,0.0056,0.0211,-0.0005,15.9850,5.3893,-45.9618,
2.9780,-0.0088,0.0173,1.0205,0.0319,0.0289,-0.0121,0.0056,0.0211,-0.0005,15.9850,5.3893,-45.9618,
2.9780,-0.0088,0.0173,1.0205,0.0319,0.0289,-0.0121,0.0096,0.0049,-0.0030,15.9850,5.3893,-45.9618,
2.9790,-0.0088,0.0173,1.0205,0.0038,0.0147,-0.0037,0.0096,0.0049,-0.0030,15.9850,5.3893,-45.9618,
3.0030,-0.0088,0.0173,1.0205,0.0038,0.0147,-0.0037,0.0096,0.0049,-0.0030,15.9739,5.3492,-45.9498,
3.0050,-0.0088,0.0173,1.0205,0.0038,0.0147,-0.0037,0.0105,0.0165,-0.0017,15.9739,5.3492,-45.9498,
3.0050,-0.0090,0.0148,1.0272,0.0038,0.0147,-0.0037,0.0105,0.0165,-0.0017,15.9739,5.3492,-45.9498,
3.0350,-0.0090,0.0148,1.0272,0.0038,0.0147,-0.0037,-0.0097,0.0195,-0.0011,15.9739,5.3492,-45.9498,
3.0360,-0.0039,0.0163,1.0217,0.0038,0.0147,-0.0037,-0.0097,0.0195,-0.0011,15.9739,5.3492,-45.9498,
3.0370,-0.0010,0.0191,1.0232,0.0038,0.0147,-0.0037,-0.0097,0.0195,-0.0011,15.9739,5.3492,-45.9498,
3.0370,-0.0010,0.0191,1.0232,-0.0175,0.0267,0.0044,-0.0097,0.0195,-0.0011,15.9739,5.3492,-45.9498,
3.0640,-0.0035,0.0174,1.0327,-0.0175,0.0267,0.0044,-0.0097,0.0195,-0.0011,15.9739,5.3492,-45.9498,
3.0660,-0.0035,0.0174,1.0327,-0.0175,0.0267,0.0044,-0.0097,0.0195,-0.0011,15.9671,5.3377,-45.9141,
3.1120,-0.0081,0.0080,1.0264,-0.0175,0.0267,0.0044,-0.0097,0.0195,-0.0011,15.9671,5.3377,-45.9141,
3.1130,-0.0095,0.0101,1.0064,-0.0175,0.0267,0.0044,-0.0097,0.0195,-0.0011,15.9671,5.3377,-45.9141,
3.1140,-0.0095,0.0101,1.0064,-0.0175,0.0267,0.0044,0.0370,0.0226,-0.0039,15.9671,5.3377,-45.9141,
3.1140,-0.0092,0.0186,1.0315,-0.0175,0.0267,0.0044,0.0370,0.0226,-0.0039,15.9671,5.3377,-45.9141,
3.1150,-0.0092,0.0186,1.0315,-0.0175,0.0267,0.0044,-0.0213,-0.0006,-0.0063,15.9671,5.3377,-45.9141,
3.1160,-0.0092,0.0186,1.0315,0.0255,0.0308,0.0152,-0.0213,-0.0006,-0.0063,15.9671,5.3377,-45.9141,
3.1440,-0.0088,0.0179,1.0317,0.0255,0.0308,0.0152,-0.0213,-0.0006,-0.0063,15.9671,5.3377,-45.9141,
3.1450,-0.0088,0.0179,1.0317,0.0255,0.0308,0.0152,-0.0213,-0.0006,-0.0063,15.9929,5.3203,-45.9133,
3.1730,-0.0015,0.0127,1.0267,0.0255,0.0308,0.0152,-0.0213,-0.0006,-0.0063,15.9929,5.3203,-45.9133,
3.1740,0.0006,0.0138,1.0246,0.0255,0.0308,0.0152,-0.0213,-0.0006,-0.0063,15.9929,5.3203,-45.9133,
3.1740,0.0006,0.0138,1.0246,0.0255,0.0308,0.0152,-0.0048,-0.0211,0.0007,15.9929,5.3203,-45.9133,
3.1750,0.0006,0.0138,1.0246,-0.0177,-0.0093,-0.0196,-0.0048,-0.0211,0.0007,15.9929,5.3203,-45.9133,
3.2040,0.0006,0.0138,1.0246,-0.0177,-0.0093,-0.0196,0.0031,0.0079,0.0001,15.9929,5.3203,-45.9133,
3.2050,0.0011,0.0142,1.0269,-0.0177,-0.0093,-0.0196,0.0031,0.0079,0.0001,15.9929,5.3203,-45.9133,
3.2050,0.0011,0.0142,1.0269,-0.0177,-0.0093,-0.0196,0.0031,0.0079,0.0001,15.9714,5.3162,-45.9069,
3.2460,-0.0028,0.0115,1.0290,-0.0177,-0.0093,-0.0196,0.0031,0.0079,0.0001,15.9714,5.3162,-45.9069,
3.2460,-0.0083,0.0115,1.0317,-0.0177,-0.0093,-0.0196,0.0031,0.0079,0.0001,15.9714,5.3162,-45.9069,
3.2470,-0.0083,0.0115,1.0317,-0.0177,-0.0093,-0.0196,0.0034,0.0165,0.0016,15.9714,5.3162,-45.9069,
3.2510,-0.0083,0.0115,1.0317,0.0400,0.0058,0.0295,0.0034,0.0165,0.0016,15.9714,5.3162,-45.9069,
3.2520,-0.0122,0.0164,1.0241,0.0400,0.0058,0.0295,0.0034,0.0165,0.0016,15.9714,5.3162,-45.9069,
3.2650,-0.0122,0.0164,1.0241,0.0400,0.0058,0.0295,0.0034,0.0165,0.0016,15.9854,5.2989,-45.8497,
3.3100,-0.0122,0.0164,1.0241,0.0400,0.0058,0.0295,0.0065,-0.0034,0.0007,15.9854,5.2989,-45.8497,
3.3110,-0.0125,0.0193,1.0202,0.0400,0.0058,0.0295,0.0065,-0.0034,0.0007,15.9854,5.2989,-45.8497,
3.3120,-0.0105,0.0186,1.0232,0.0400,0.0058,0.0295,0.0065,-0.0034,0.0007,15.9854,5.2989,-45.8497,
3.3130,-0.0098,0.0155,1.0228,0.0400,0.0058,0.0295,0.0065,-0.0034,0.0007,15.9854,5.2989,-45.8497,
3.3130,-0.0098,0.0155,1.0228,0.0024,-0.0055,0.0298,0.0065,-0.0034,0.0007,15.9854,5.2989,-45.8497,
3.3140,-0.0098,0.0155,1.0228,0.0024,-0.0055,0.0298,-0.0057,0.0003,0.0001,15.9854,5.2989,-45.8497,
3.3440,-0.0092,0.0130,1.0246,0.0024,-0.0055,0.0298,-0.0057,0.0003,0.0001,15.9854,5.2989,-45.8497,
3.3450,-0.0092,0.0130,1.0246,0.0024,-0.0055,0.0298,-0.0057,0.0003,0.0001,15.9477,5.2754,-45.8477,
3.3770,-0.0092,0.0130,1.0246,0.0024,-0.0055,0.0298,-0.0066,0.0088,-0.0023,15.9477,5.2754,-45.8477,
3.3790,-0.0068,0.0140,1.0199,0.0024,-0.0055,0.0298,-0.0066,0.0088,-0.0023,15.9477,5.2754,-45.8477,
3.3790,-0.0037,0.0176,1.0363,0.0024,-0.0055,0.0298,-0.0066,0.0088,-0.0023,15.9477,5.2754,-45.8477,
3.3870,-0.0037,0.0176,1.0363,-0.0234,0.0298,-0.0236,-0.0066,0.0088,-0.0023,15.9477,5.2754,-45.8477,
3.3880,-0.0049,0.0148,1.0026,-0.0234,0.0298,-0.0236,-0.0066,0.0088,-0.0023,15.9477,5.2754,-45.8477,
3.3890,-0.0049,0.0148,1.0026,-0.0234,0.0298,-0.0236,-0.0008,0.0253,-0.0020,15.9477,5.2754,-45.8477,
3.4050,-0.0049,0.0148,1.0026,-0.0234,0.0298,-0.0236,-0.0008,0.0253,-0.0020,15.9017,5.2532,-45.8557,
3.4180,-0.0115,0.0133,1.0439,-0.0234,0.0298,-0.0236,-0.0008,0.0253,-0.0020,15.9017,5.2532,-45.8557,
3.4430,-0.0083,0.0165,1.0203,-0.0234,0.0298,-0.0236,-0.0008,0.0253,-0.0020,15.9017,5.2532,-45.8557,
3.4440,-0.0083,0.0165,1.0203,-0.0234,0.0298,-0.0236,0.0044,0.0033,-0.0023,15.9017,5.2532,-45.8557,
3.4450,-0.0071,0.0177,1.0253,-0.0234,0.0298,-0.0236,0.0044,0.0033,-0.0023,15.9017,5.2532,-45.8557,
3.4450,-0.0071,0.0177,1.0253,0.0234,0.0089,-0.0368,0.0044,0.0033,-0.0023,15.9017,5.2532,-45.8557,
3.4650,-0.0071,0.0177,1.0253,0.0234,0.0089,-0.0368,0.0044,0.0033,-0.0023,15.9437,5.2324,-45.8416,
3.5100,-0.0017,0.0169,1.0300,0.0234,0.0089,-0.0368,0.0044,0.0033,-0.0023,15.9437,5.2324,-45.8416,
3.5120,-0.0009,0.0146,1.0261,0.0234,0.0089,-0.0368,0.0044,0.0033,-0.0023,15.9437,5.2324,-45.8416,
3.5120,-0.0077,0.0149,1.0277,0.0234,0.0089,-0.0368,0.0044,0.0033,-0.0023,15.9437,5.2324,-45.8416,
3.5130,-0.0077,0.0149,1.0277,0.0234,0.0089,-0.0368,0.0013,-0.0031,0.0001,15.9437,5.2324,-45.8416,
3.5140,-0.0077,0.0149,1.0277,0.0234,0.0089,-0.0368,-0.0106,0.0073,0.0032,15.9437,5.2324,-45.8416,
3.5240,-0.0099,0.0157,1.0240,0.0234,0.0089,-0.0368,-0.0106,0.0073,0.0032,15.9437,5.2324,-45.8416,
3.5260,-0.0099,0.0157,1.0240,0.0021,0.0219,0.0481,-0.0106,0.0073,0.0032,15.9437,5.2324,-45.8416,
3.5440,-0.0106,0.0152,1.0253,0.0021,0.0219,0.0481,-0.0106,0.0073,0.0032,15.9437,5.2324,-45.8416,
3.5450,-0.0106,0.0152,1.0253,0.0021,0.0219,0.0481,-0.0106,0.0073,0.0032,15.9773,5.2404,-45.8313,
3.5460,-0.0106,0.0152,1.0253,0.0021,0.0219,0.0481,-0.0079,0.0076,-0.0002,15.9773,5.2404,-45.8313,
3.5780,-0.0114,0.0148,1.0223,0.0021,0.0219,0.0481,-0.0079,0.0076,-0.0002,15.9773,5.2404,-45.8313,
3.5820,-0.0114,0.0148,1.0223,0.0021,0.0219,0.0481,0.0083,0.0030,-0.0039,15.9773,5.2404,-45.8313,
3.5830,-0.0114,0.0148,1.0223,0.0292,0.0083,0.0158,0.0083,0.0030,-0.0039,15.9773,5.2404,-45.8313,
3.5830,-0.0117,0.0140,1.0285,0.0292,0.0083,0.0158,0.0083,0.0030,-0.0039,15.9773,5.2404,-45.8313,
3.6050,-0.0117,0.0140,1.0285,0.0292,0.0083,0.0158,0.0083,0.0030,-0.0039,16.0491,5.2379,-45.8428,
3.6070,-0.0100,0.0168,1.0278,0.0292,0.0083,0.0158,0.0083,0.0030,-0.0039,16.0491,5.2379,-45.8428,
3.6440,-0.0100,0.0168,1.0278,0.0292,0.0083,0.0158,0.0157,0.0030,-0.0039,16.0491,5.2379,-45.8428,
3.6440,-0.0105,0.0177,1.0157,0.0292,0.0083,0.0158,0.0157,0.0030,-0.0039,16.0491,5.2379,-45.8428,
3.6450,-0.0132,0.0177,1.0274,0.0292,0.0083,0.0158,0.0157,0.0030,-0.0039,16.0491,5.2379,-45.8428,
3.6610,-0.0093,0.0163,1.0293,0.0292,0.0083,0.0158,0.0157,0.0030,-0.0039,16.0491,5.2379,-45.8428,
3.6620,-0.0093,0.0163,1.0293,0.0292,0.0083,0.0158,0.0037,0.0061,-0.0026,16.0491,5.2379,-45.8428,
3.6630,-0.0093,0.0163,1.0293,-0.0209,-0.0019,0.0084,0.0037,0.0061,-0.0026,16.0491,5.2379,-45.8428,
3.6630,-0.0093,0.0163,1.0293,-0.0209,-0.0019,0.0084,0.0037,0.0061,-0.0026,16.0855,5.2286,-45.8442,
3.7110,-0.0033,0.0186,1.0234,-0.0209,-0.0019,0.0084,0.0037,0.0061,-0.0026,16.0855,5.2286,-45.8442,
3.7130,-0.0029,0.0196,1.0311,-0.0209,-0.0019,0.0084,0.0037,0.0061,-0.0026,16.0855,5.2286,-45.8442,
3.7140,-0.0029,0.0196,1.0311,-0.0209,-0.0019,0.0084,-0.0082,0.0217,-0.0011,16.0855,5.2286,-45.8442,
3.7190,-0.0083,0.0136,1.0197,-0.0209,-0.0019,0.0084,-0.0082,0.0217,-0.0011,16.0855,5.2286,-45.8442,
3.7200,-0.0083,0.0136,1.0197,-0.0026,0.0091,-0.0060,-0.0082,0.0217,-0.0011,16.0855,5.2286,-45.8442,
3.7450,-0.0147,0.0104,1.0186,-0.0026,0.0091,-0.0060,-0.0082,0.0217,-0.0011,16.0855,5.2286,-45.8442,
3.7470,-0.0147,0.0104,1.0186,-0.0026,0.0091,-0.0060,0.0447,0.0091,-0.0054,16.0855,5.2286,-45.8442,
3.7470,-0.0147,0.0104,1.0186,-0.0026,0.0091,-0.0060,0.0447,0.0091,-0.0054,16.1559,5.2067,-45.8497,
3.7770,-0.0122,0.0177,1.0189,-0.0026,0.0091,-0.0060,0.0447,0.0091,-0.0054,16.1559,5.2067,-45.8497,
3.7780,-0.0122,0.0177,1.0189,-0.0026,0.0091,-0.0060,-0.0326,0.0012,-0.0011,16.1559,5.2067,-45.8497,
3.7790,-0.0111,0.0218,1.0264,-0.0026,0.0091,-0.0060,-0.0326,0.0012,-0.0011,16.1559,5.2067,-45.8497,
3.7980,-0.0111,0.0218,1.0264,0.0299,0.0098,0.0142,-0.0326,0.0012,-0.0011,16.1559,5.2067,-45.8497,
3.7990,-0.0117,0.0174,1.0319,0.0299,0.0098,0.0142,-0.0326,0.0012,-0.0011,16.1559,5.2067,-45.8497,
3.8050,-0.0117,0.0174,1.0319,0.0299,0.0098,0.0142,-0.0326,0.0012,-0.0011,16.2347,5.1857,-45.8596,
3.8450,-0.0066,0.0144,1.0293,0.0299,0.0098,0.0142,-0.0326,0.0012,-0.0011,16.2347,5.1857,-45.8596,
3.8460,-0.0028,0.0169,1.0257,0.0299,0.0098,0.0142,-0.0326,0.0012,-0.0011,16.2347,5.1857,-45.8596,
3.8470,-0.0028,0.0169,1.0257,0.0299,0.0098,0.0142,-0.0088,-0.0235,-0.0008,16.2347,5.1857,-45.8596,
3.8560,0.0004,0.0157,1.0302,0.0299,0.0098,0.0142,-0.0088,-0.0235,-0.0008,16.2347,5.1857,-45.8596,
3.8570,0.0004,0.0157,1.0302,-0.0292,0.0260,-0.0288,-0.0088,-0.0235,-0.0008,16.2347,5.1857,-45.8596,
3.8580,0.0004,0.0157,1.0302,-0.0292,0.0260,-0.0288,-0.0042,-0.0073,-0.0008,16.2347,5.1857,-45.8596,
3.8640,0.0004,0.0157,1.0302,-0.0292,0.0260,-0.0288,-0.0042,-0.0073,-0.0008,16.3283,5.1859,-45.8613,
3.9110,-0.0001,0.0136,1.0286,-0.0292,0.0260,-0.0288,-0.0042,-0.0073,-0.0008,16.3283,5.1859,-45.8613,
3.9130,-0.0068,0.0148,1.0277,-0.0292,0.0260,-0.0288,-0.0042,-0.0073,-0.0008,16.3283,5.1859,-45.8613,
3.9140,-0.0068,0.0148,1.0277,-0.0292,0.0260,-0.0288,0.0004,-0.0077,0.0007,16.3283,5.1859,-45.8613,
3.9180,-0.0133,0.0188,1.0217,-0.0292,0.0260,-0.0288,0.0004,-0.0077,0.0007,16.3283,5.1859,-45.8613,
3.9340,-0.0133,0.0188,1.0217,0.0515,0.0022,0.0327,0.0004,-0.0077,0.0007,16.3283,5.1859,-45.8613,
3.9360,-0.0133,0.0188,1.0217,0.0515,0.0022,0.0327,-0.0011,-0.0086,0.0016,16.3283,5.1859,-45.8613,
3.9360,-0.0150,0.0214,1.0223,0.0515,0.0022,0.0327,-0.0011,-0.0086,0.0016,16.3283,5.1859,-45.8613,
3.9440,-0.0150,0.0214,1.0223,0.0515,0.0022,0.0327,-0.0011,-0.0086,0.0016,16.3934,5.1887,-45.8349,
3.9770,-0.0115,0.0202,1.0262,0.0515,0.0022,0.0327,-0.0011,-0.0086,0.0016,16.3934,5.1887,-45.8349,
3.9780,-0.0071,0.0154,1.0267,0.0515,0.0022,0.0327,-0.0011,-0.0086,0.0016,16.3934,5.1887,-45.8349,
3.9790,-0.0071,0.0154,1.0267,0.0515,0.0022,0.0327,-0.0106,-0.0183,0.0001,16.3934,5.1887,-45.8349,
3.9920,-0.0071,0.0154,1.0267,-0.0284,0.0283,-0.0082,-0.0106,-0.0183,0.0001,16.3934,5.1887,-45.8349,
3.9940,-0.0072,0.0148,1.0258,-0.0284,0.0283,-0.0082,-0.0106,-0.0183,0.0001,16.3934,5.1887,-45.8349,
4.0030,-0.0072,0.0148,1.0258,-0.0284,0.0283,-0.0082,-0.0106,-0.0183,0.0001,16.3657,5.1836,-45.8375,
4.0450,-0.0072,0.0148,1.0258,-0.0284,0.0283,-0.0082,-0.0143,-0.0058,0.0001,16.3657,5.1836,-45.8375,
4.0460,-0.0059,0.0154,1.0242,-0.0284,0.0283,-0.0082,-0.0143,-0.0058,0.0001,16.3657,5.1836,-45.8375,
4.0470,-0.0004,0.0163,1.0155,-0.0284,0.0283,-0.0082,-0.0143,-0.0058,0.0001,16.3657,5.1836,-45.8375,
4.0640,-0.0004,0.0163,1.0155,-0.0284,0.0283,-0.0082,-0.0143,-0.0058,0.0001,16.3699,5.1731,-45.8431,
4.0650,-0.0004,0.0163,1.0155,-0.0284,0.0283,-0.0082,0.0028,0.0064,0.0010,16.3699,5.1731,-45.8431,
4.0660,-0.0066,0.0130,1.0293,-0.0284,0.0283,-0.0082,0.0028,0.0064,0.0010,16.3699,5.1731,-45.8431,
4.0690,-0.0066,0.0130,1.0293,-0.0084,0.0152,-0.0088,0.0028,0.0064,0.0010,16.3699,5.1731,-45.8431,
4.0710,-0.0062,0.0136,1.0255,-0.0084,0.0152,-0.0088,0.0028,0.0064,0.0010,16.3699,5.1731,-45.8431,
4.1110,-0.0055,0.0179,1.0207,-0.0084,0.0152,-0.0088,0.0028,0.0064,0.0010,16.3699,5.1731,-45.8431,
4.1120,-0.0042,0.0195,1.0305,-0.0084,0.0152,-0.0088,0.0028,0.0064,0.0010,16.3699,5.1731,-45.8431,
4.1130,-0.0042,0.0195,1.0305,-0.0084,0.0152,-0.0088,0.0053,-0.0046,-0.0020,16.3699,5.1731,-45.8431,
4.1300,-0.0042,0.0195,1.0305,0.0213,-0.0044,0.0016,0.0053,-0.0046,-0.0020,16.3699,5.1731,-45.8431,
4.1310,-0.0042,0.0195,1.0305,0.0213,-0.0044,0.0016,0.0007,-0.0073,0.0041,16.3699,5.1731,-45.8431,
4.1320,0.0046,0.0155,1.0282,0.0213,-0.0044,0.0016,0.0007,-0.0073,0.0041,16.3699,5.1731,-45.8431,
4.1460,0.0046,0.0155,1.0282,0.0213,-0.0044,0.0016,0.0007,-0.0073,0.0041,16.3615,5.1622,-45.8420,
4.1780,0.0046,0.0155,1.0282,0.0213,-0.0044,0.0016,-0.0124,0.0073,0.0041,16.3615,5.1622,-45.8420,
4.1820,-0.0004,0.0141,1.0252,0.0213,-0.0044,0.0016,-0.0124,0.0073,0.0041,16.3615,5.1622,-45.8420,
4.1830,-0.0068,0.0166,1.0261,0.0213,-0.0044,0.0016,-0.0124,0.0073,0.0041,16.3615,5.1622,-45.8420,
4.2040,-0.0071,0.0192,1.0266,0.0213,-0.0044,0.0016,-0.0124,0.0073,0.0041,16.3615,5.1622,-45.8420,
4.2060,-0.0071,0.0192,1.0266,0.0213,-0.0044,0.0016,-0.0124,0.0073,0.0041,16.3216,5.1571,-45.8293,
4.2060,-0.0033,0.0196,1.0260,0.0213,-0.0044,0.0016,-0.0124,0.0073,0.0041,16.3216,5.1571,-45.8293,
4.2070,-0.0033,0.0196,1.0260,0.0213,-0.0044,0.0016,-0.0097,0.0070,0.0053,16.3216,5.1571,-45.8293,
4.2070,-0.0033,0.0196,1.0260,0.0536,0.0261,0.0096,-0.0097,0.0070,0.0053,16.3216,5.1571,-45.8293,
4.2450,-0.0050,0.0162,1.0227,0.0536,0.0261,0.0096,-0.0097,0.0070,0.0053,16.3216,5.1571,-45.8293,
4.2640,-0.0050,0.0162,1.0227,0.0536,0.0261,0.0096,-0.0097,0.0070,0.0053,16.2789,5.1682,-45.8314,
4.2660,-0.0098,0.0154,1.0244,0.0536,0.0261,0.0096,-0.0097,0.0070,0.0053,16.2789,5.1682,-45.8314,
4.2670,-0.0098,0.0154,1.0244,0.0536,0.0261,0.0096,0.0047,0.0137,-0.0014,16.2789,5.1682,-45.8314,
4.2670,-0.0099,0.0188,1.0299,0.0536,0.0261,0.0096,0.0047,0.0137,-0.0014,16.2789,5.1682,-45.8314,
4.2690,-0.0099,0.0188,1.0299,0.0194,0.0257,0.0077,0.0047,0.0137,-0.0014,16.2789,5.1682,-45.8314,
4.3100,-0.0099,0.0188,1.0299,0.0194,0.0257,0.0077,0.0034,0.0085,0.0016,16.2789,5.1682,-45.8314,
4.3120,-0.0101,0.0185,1.0283,0.0194,0.0257,0.0077,0.0034,0.0085,0.0016,16.2789,5.1682,-45.8314,
4.3130,-0.0092,0.0181,1.0213,0.0194,0.0257,0.0077,0.0034,0.0085,0.0016,16.2789,5.1682,-45.8314,
4.3440,-0.0092,0.0181,1.0213,0.0194,0.0257,0.0077,0.0041,0.0082,0.0025,16.2789,5.1682,-45.8314,
4.3460,-0.0068,0.0179,1.0223,0.0194,0.0257,0.0077,0.0041,0.0082,0.0025,16.2789,5.1682,-45.8314,
4.3460,-0.0053,0.0181,1.0275,0.0194,0.0257,0.0077,0.0041,0.0082,0.0025,16.2789,5.1682,-45.8314,
4.3460,-0.0053,0.0181,1.0275,-0.0091,0.0163,0.0066,0.0041,0.0082,0.0025,16.2789,5.1682,-45.8314,
4.3470,-0.0053,0.0181,1.0275,-0.0091,0.0163,0.0066,0.0041,0.0082,0.0025,16.2357,5.1752,-45.8409,
4.3770,-0.0016,0.0168,1.0253,-0.0091,0.0163,0.0066,0.0041,0.0082,0.0025,16.2357,5.1752,-45.8409,
4.3780,-0.0016,0.0168,1.0253,-0.0091,0.0163,0.0066,-0.0094,-0.0037,0.0013,16.2357,5.1752,-45.8409,
4.4030,-0.0006,0.0165,1.0252,-0.0091,0.0163,0.0066,-0.0094,-0.0037,0.0013,16.2357,5.1752,-45.8409,
4.4050,-0.0006,0.0165,1.0252,-0.0091,0.0163,0.0066,0.0044,0.0204,0.0032,16.2357,5.1752,-45.8409,
4.4050,-0.0044,0.0153,1.0185,-0.0091,0.0163,0.0066,0.0044,0.0204,0.0032,16.2357,5.1752,-45.8409,
4.4060,-0.0044,0.0153,1.0185,0.0090,0.0187,-0.0096,0.0044,0.0204,0.0032,16.2357,5.1752,-45.8409,
4.4060,-0.0044,0.0153,1.0185,0.0090,0.0187,-0.0096,0.0044,0.0204,0.0032,16.1751,5.1714,-45.8156,
4.4440,-0.0044,0.0153,1.0185,0.0090,0.0187,-0.0096,0.0181,-0.0067,0.0004,16.1751,5.1714,-45.8156,
4.4450,-0.0122,0.0116,1.0324,0.0090,0.0187,-0.0096,0.0181,-0.0067,0.0004,16.1751,5.1714,-45.8156,
4.4460,-0.0110,0.0163,1.0043,0.0090,0.0187,-0.0096,0.0181,-0.0067,0.0004,16.1751,5.1714,-45.8156,
4.4640,-0.0110,0.0163,1.0043,0.0090,0.0187,-0.0096,0.0181,-0.0067,0.0004,16.1432,5.1598,-45.8251,
4.4660,-0.0097,0.0209,1.0277,0.0090,0.0187,-0.0096,0.0181,-0.0067,0.0004,16.1432,5.1598,-45.8251,
4.4800,-0.0097,0.0179,1.0279,0.0090,0.0187,-0.0096,0.0181,-0.0067,0.0004,16.1432,5.1598,-45.8251,
4.4830,-0.0097,0.0179,1.0279,0.0090,0.0187,-0.0096,-0.0274,-0.0110,0.0059,16.1432,5.1598,-45.8251,
4.4840,-0.0097,0.0179,1.0279,0.0344,0.0032,-0.0160,-0.0274,-0.0110,0.0059,16.1432,5.1598,-45.8251,
4.5100,-0.0040,0.0141,1.0258,0.0344,0.0032,-0.0160,-0.0274,-0.0110,0.0059,16.1432,5.1598,-45.8251,
4.5400,-0.0040,0.0141,1.0258,-0.0309,0.0190,-0.0212,-0.0274,-0.0110,0.0059,16.1432,5.1598,-45.8251,
4.5430,-0.0040,0.0141,1.0258,-0.0309,0.0190,-0.0212,-0.0054,-0.0168,0.0044,16.1432,5.1598,-45.8251,
4.5430,-0.0010,0.0159,1.0251,-0.0309,0.0190,-0.0212,-0.0054,-0.0168,0.0044,16.1432,5.1598,-45.8251,
4.5440,0.0011,0.0164,1.0250,-0.0309,0.0190,-0.0212,-0.0054,-0.0168,0.0044,16.1432,5.1598,-45.8251,
4.5440,0.0011,0.0164,1.0250,-0.0309,0.0190,-0.0212,-0.0054,-0.0168,0.0044,16.1878,5.1610,-45.8466,
4.5780,-0.0011,0.0140,1.0268,-0.0309,0.0190,-0.0212,-0.0054,-0.0168,0.0044,16.1878,5.1610,-45.8466,
4.5790,-0.0011,0.0140,1.0268,-0.0309,0.0190,-0.0212,0.0034,0.0143,0.0068,16.1878,5.1610,-45.8466,
4.5790,-0.0071,0.0151,1.0266,-0.0309,0.0190,-0.0212,0.0034,0.0143,0.0068,16.1878,5.1610,-45.8466,
4.6040,-0.0125,0.0207,1.0221,-0.0309,0.0190,-0.0212,0.0034,0.0143,0.0068,16.1878,5.1610,-45.8466,
4.6050,-0.0125,0.0207,1.0221,-0.0309,0.0190,-0.0212,0.0068,0.0064,0.0041,16.1878,5.1610,-45.8466,
4.6060,-0.0125,0.0207,1.0221,-0.0309,0.0190,-0.0212,0.0068,0.0064,0.0041,16.2132,5.1624,-45.8465,
4.6160,-0.0125,0.0207,1.0221,0.0576,-0.0029,0.0052,0.0068,0.0064,0.0041,16.2132,5.1624,-45.8465,
4.6170,-0.0137,0.0230,1.0194,0.0576,-0.0029,0.0052,0.0068,0.0064,0.0041,16.2132,5.1624,-45.8465,
4.6440,-0.0114,0.0206,1.0258,0.0576,-0.0029,0.0052,0.0068,0.0064,0.0041,16.2132,5.1624,-45.8465,
4.6450,-0.0114,0.0206,1.0258,0.0576,-0.0029,0.0052,-0.0069,-0.0028,0.0041,16.2132,5.1624,-45.8465,
4.6640,-0.0083,0.0164,1.0225,0.0576,-0.0029,0.0052,-0.0069,-0.0028,0.0041,16.2132,5.1624,-45.8465,
4.6660,-0.0083,0.0164,1.0225,0.0576,-0.0029,0.0052,-0.0069,-0.0028,0.0041,16.2067,5.1535,-45.8202,
4.6740,-0.0078,0.0146,1.0253,0.0576,-0.0029,0.0052,-0.0069,-0.0028,0.0041,16.2067,5.1535,-45.8202,
4.6750,-0.0078,0.0146,1.0253,0.0576,-0.0029,0.0052,-0.0112,-0.0058,0.0025,16.2067,5.1535,-45.8202,
4.6760,-0.0078,0.0146,1.0253,-0.0281,0.0343,-0.0134,-0.0112,-0.0058,0.0025,16.2067,5.1535,-45.8202,
4.7100,-0.0046,0.0153,1.0169,-0.0281,0.0343,-0.0134,-0.0112,-0.0058,0.0025,16.2067,5.1535,-45.8202,
4.7450,-0.0007,0.0180,1.0283,-0.0281,0.0343,-0.0134,-0.0112,-0.0058,0.0025,16.2067,5.1535,-45.8202,
4.7460,-0.0007,0.0180,1.0283,-0.0281,0.0343,-0.0134,-0.0094,-0.0000,0.0038,16.2067,5.1535,-45.8202,
4.7460,-0.0049,0.0154,1.0069,-0.0281,0.0343,-0.0134,-0.0094,-0.0000,0.0038,16.2067,5.1535,-45.8202,
4.7470,-0.0049,0.0154,1.0069,-0.0281,0.0343,-0.0134,-0.0094,-0.0000,0.0038,16.1963,5.1553,-45.8440,
4.7530,-0.0104,0.0138,1.0359,-0.0281,0.0343,-0.0134,-0.0094,-0.0000,0.0038,16.1963,5.1553,-45.8440,
4.7540,-0.0104,0.0138,1.0359,-0.0281,0.0343,-0.0134,-0.0017,0.0171,0.0056,16.1963,5.1553,-45.8440,
4.7550,-0.0104,0.0138,1.0359,-0.0085,0.0167,-0.0095,-0.0017,0.0171,0.0056,16.1963,5.1553,-45.8440,
4.7760,-0.0046,0.0176,1.0261,-0.0085,0.0167,-0.0095,-0.0017,0.0171,0.0056,16.1963,5.1553,-45.8440,
4.8040,-0.0046,0.0176,1.0261,-0.0085,0.0167,-0.0095,-0.0024,-0.0171,0.0041,16.1963,5.1553,-45.8440,
4.8060,-0.0046,0.0176,1.0261,-0.0085,0.0167,-0.0095,-0.0024,-0.0171,0.0041,16.1631,5.1543,-45.8565,
4.8070,-0.0001,0.0162,1.0261,-0.0085,0.0167,-0.0095,-0.0024,-0.0171,0.0041,16.1631,5.1543,-45.8565,
4.8120,-0.0001,0.0162,1.0261,0.0171,0.0079,-0.0179,-0.0024,-0.0171,0.0041,16.1631,5.1543,-45.8565,
4.8120,0.0016,0.0140,1.0238,0.0171,0.0079,-0.0179,-0.0024,-0.0171,0.0041,16.1631,5.1543,-45.8565,
4.8440,-0.0068,0.0148,1.0249,0.0171,0.0079,-0.0179,-0.0024,-0.0171,0.0041,16.1631,5.1543,-45.8565,
4.8450,-0.0068,0.0148,1.0249,0.0171,0.0079,-0.0179,-0.0079,0.0015,0.0071,16.1631,5.1543,-45.8565,
4.8630,-0.0097,0.0170,1.0233,0.0171,0.0079,-0.0179,-0.0079,0.0015,0.0071,16.1631,5.1543,-45.8565,
4.8640,-0.0097,0.0170,1.0233,0.0171,0.0079,-0.0179,-0.0079,0.0015,0.0071,16.1007,5.1546,-45.8512,
4.8890,-0.0097,0.0170,1.0233,0.0171,0.0079,-0.0179,-0.0103,-0.0086,0.0062,16.1007,5.1546,-45.8512,
4.8900,-0.0065,0.0187,1.0233,0.0171,0.0079,-0.0179,-0.0103,-0.0086,0.0062,16.1007,5.1546,-45.8512,
4.8910,-0.0057,0.0170,1.0201,0.0171,0.0079,-0.0179,-0.0103,-0.0086,0.0062,16.1007,5.1546,-45.8512,
4.8910,-0.0057,0.0170,1.0201,0.0432,0.0109,0.0049,-0.0103,-0.0086,0.0062,16.1007,5.1546,-45.8512,
4.9100,-0.0097,0.0158,1.0221,0.0432,0.0109,0.0049,-0.0103,-0.0086,0.0062,16.1007,5.1546,-45.8512,
4.9120,-0.0097,0.0158,1.0221,0.0432,0.0109,0.0049,0.0013,0.0006,0.0047,16.1007,5.1546,-45.8512,
4.9440,-0.0097,0.0158,1.0221,0.0432,0.0109,0.0049,0.0013,0.0006,0.0047,16.0583,5.1623,-45.8825,
4.9460,-0.0110,0.0163,1.0284,0.0432,0.0109,0.0049,0.0013,0.0006,0.0047,16.0583,5.1623,-45.8825,
4.9480,-0.0081,0.0177,1.0210,0.0432,0.0109,0.0049,0.0013,0.0006,0.0047,16.0583,5.1623,-45.8825,
4.9490,-0.0081,0.0177,1.0210,0.0432,0.0109,0.0049,0.0151,-0.0073,0.0004,16.0583,5.1623,-45.8825,
4.9490,-0.0081,0.0177,1.0210,-0.0154,0.0160,-0.0137,0.0151,-0.0073,0.0004,16.0583,5.1623,-45.8825,
4.9770,-0.0075,0.0190,1.0183,-0.0154,0.0160,-0.0137,0.0151,-0.0073,0.0004,16.0583,5.1623,-45.8825,
5.0050,-0.0075,0.0190,1.0183,-0.0154,0.0160,-0.0137,0.0151,-0.0073,0.0004,16.0239,5.1597,-45.8841,
5.0070,-0.0077,0.0186,1.0272,-0.0154,0.0160,-0.0137,0.0151,-0.0073,0.0004,16.0239,5.1597,-45.8841,
5.0070,-0.0077,0.0186,1.0272,-0.0154,0.0160,-0.0137,0.0172,0.0012,-0.0023,16.0239,5.1597,-45.8841,
5.0260,-0.0077,0.0186,1.0272,-0.0241,0.0064,-0.0130,0.0172,0.0012,-0.0023,16.0239,5.1597,-45.8841,
5.0280,-0.0026,0.0196,1.0275,-0.0241,0.0064,-0.0130,0.0172,0.0012,-0.0023,16.0239,5.1597,-45.8841,
5.0280,-0.0026,0.0196,1.0275,-0.0241,0.0064,-0.0130,0.0025,0.0101,-0.0017,16.0239,5.1597,-45.8841,
5.0290,0.0015,0.0206,1.0227,-0.0241,0.0064,-0.0130,0.0025,0.0101,-0.0017,16.0239,5.1597,-45.8841,
5.0640,0.0001,0.0206,1.0282,-0.0241,0.0064,-0.0130,0.0025,0.0101,-0.0017,16.0239,5.1597,-45.8841,
5.0660,0.0001,0.0206,1.0282,-0.0241,0.0064,-0.0130,0.0025,0.0101,-0.0017,16.0027,5.1560,-45.8801,
5.0850,0.0001,0.0206,1.0282,0.0333,0.0137,0.0079,0.0025,0.0101,-0.0017,16.0027,5.1560,-45.8801,
5.0870,0.0001,0.0206,1.0282,0.0333,0.0137,0.0079,0.0245,0.0281,0.0001,16.0027,5.1560,-45.8801,
5.0870,-0.0088,0.0143,1.0199,0.0333,0.0137,0.0079,0.0245,0.0281,0.0001,16.0027,5.1560,-45.8801,
5.0880,-0.0108,0.0113,1.0118,0.0333,0.0137,0.0079,0.0245,0.0281,0.0001,16.0027,5.1560,-45.8801,
5.1100,-0.0111,0.0192,1.0212,0.0333,0.0137,0.0079,0.0245,0.0281,0.0001,16.0027,5.1560,-45.8801,
5.1110,-0.0111,0.0192,1.0212,0.0333,0.0137,0.0079,0.0071,-0.0055,-0.0039,16.0027,5.1560,-45.8801,
5.1450,-0.0082,0.0245,1.0338,0.0333,0.0137,0.0079,0.0071,-0.0055,-0.0039,16.0027,5.1560,-45.8801,
5.1470,-0.0082,0.0245,1.0338,0.0333,0.0137,0.0079,-0.0057,-0.0202,-0.0008,16.0027,5.1560,-45.8801,
5.1470,-0.0001,0.0202,1.0245,0.0333,0.0137,0.0079,-0.0057,-0.0202,-0.0008,16.0027,5.1560,-45.8801,
5.1480,-0.0001,0.0202,1.0245,0.0333,0.0137,0.0079,-0.0057,-0.0202,-0.0008,16.0134,5.1474,-45.8772,
5.1630,-0.0001,0.0202,1.0245,-0.0112,-0.0178,-0.0445,-0.0057,-0.0202,-0.0008,16.0134,5.1474,-45.8772,
5.1650,0.0029,0.0177,1.0228,-0.0112,-0.0178,-0.0445,-0.0057,-0.0202,-0.0008,16.0134,5.1474,-45.8772,
5.2040,0.0029,0.0177,1.0228,-0.0112,-0.0178,-0.0445,0.0089,-0.0095,-0.0014,16.0134,5.1474,-45.8772,
5.2060,0.0006,0.0174,1.0247,-0.0112,-0.0178,-0.0445,0.0089,-0.0095,-0.0014,16.0134,5.1474,-45.8772,
5.2060,-0.0020,0.0158,1.0296,-0.0112,-0.0178,-0.0445,0.0089,-0.0095,-0.0014,16.0134,5.1474,-45.8772,
5.2070,-0.0020,0.0158,1.0296,-0.0112,-0.0178,-0.0445,0.0089,-0.0095,-0.0014,16.0410,5.1352,-45.9446,
5.2220,-0.0020,0.0158,1.0296,0.0270,0.0252,0.0316,0.0089,-0.0095,-0.0014,16.0410,5.1352,-45.9446,
5.2230,-0.0020,0.0158,1.0296,0.0270,0.0252,0.0316,0.0044,0.0015,0.0028,16.0410,5.1352,-45.9446,
5.2240,-0.0031,0.0164,1.0277,0.0270,0.0252,0.0316,0.0044,0.0015,0.0028,16.0410,5.1352,-45.9446,
5.2440,-0.0078,0.0209,1.0225,0.0270,0.0252,0.0316,0.0044,0.0015,0.0028,16.0410,5.1352,-45.9446,
5.2640,-0.0078,0.0209,1.0225,0.0270,0.0252,0.0316,0.0126,-0.0009,0.0019,16.0410,5.1352,-45.9446,
5.2650,-0.0112,0.0247,1.0227,0.0270,0.0252,0.0316,0.0126,-0.0009,0.0019,16.0410,5.1352,-45.9446,
5.2660,-0.0112,0.0247,1.0227,0.0270,0.0252,0.0316,0.0126,-0.0009,0.0019,16.1088,5.1223,-45.9489,
5.3000,-0.0112,0.0247,1.0227,0.0270,0.0252,0.0316,-0.0011,-0.0064,0.0025,16.1088,5.1223,-45.9489,
5.3010,-0.0120,0.0248,1.0249,0.0270,0.0252,0.0316,-0.0011,-0.0064,0.0025,16.1088,5.1223,-45.9489,
5.3020,-0.0103,0.0217,1.0212,0.0270,0.0252,0.0316,-0.0011,-0.0064,0.0025,16.1088,5.1223,-45.9489,
5.3030,-0.0103,0.0217,1.0212,0.0285,-0.0155,0.0227,-0.0011,-0.0064,0.0025,16.1088,5.1223,-45.9489,
5.3450,-0.0070,0.0181,1.0274,0.0285,-0.0155,0.0227,-0.0011,-0.0064,0.0025,16.1088,5.1223,-45.9489,
5.3460,-0.0070,0.0181,1.0274,0.0285,-0.0155,0.0227,-0.0024,-0.0116,0.0004,16.1088,5.1223,-45.9489,
5.3470,-0.0039,0.0184,1.0162,0.0285,-0.0155,0.0227,-0.0024,-0.0116,0.0004,16.1088,5.1223,-45.9489,
5.3470,-0.0039,0.0184,1.0162,0.0285,-0.0155,0.0227,-0.0024,-0.0116,0.0004,16.1500,5.0837,-45.9458,
5.3580,-0.0039,0.0184,1.0162,-0.0502,0.0480,-0.0121,-0.0024,-0.0116,0.0004,16.1500,5.0837,-45.9458,
5.3590,-0.0007,0.0214,1.0327,-0.0502,0.0480,-0.0121,-0.0024,-0.0116,0.0004,16.1500,5.0837,-45.9458,
5.3780,-0.0035,0.0187,1.0128,-0.0502,0.0480,-0.0121,-0.0024,-0.0116,0.0004,16.1500,5.0837,-45.9458,
5.3790,-0.0035,0.0187,1.0128,-0.0502,0.0480,-0.0121,-0.0027,0.0146,0.0041,16.1500,5.0837,-45.9458,
5.4050,-0.0035,0.0187,1.0128,-0.0502,0.0480,-0.0121,-0.0027,0.0146,0.0041,16.1916,5.0577,-45.9451,
5.4080,-0.0050,0.0171,1.0284,-0.0502,0.0480,-0.0121,-0.0027,0.0146,0.0041,16.1916,5.0577,-45.9451,
5.4170,-0.0016,0.0210,1.0246,-0.0502,0.0480,-0.0121,-0.0027,0.0146,0.0041,16.1916,5.0577,-45.9451,
5.4190,-0.0016,0.0210,1.0246,-0.0502,0.0480,-0.0121,0.0053,-0.0083,-0.0017,16.1916,5.0577,-45.9451,
5.4360,0.0017,0.0230,1.0288,-0.0502,0.0480,-0.0121,0.0053,-0.0083,-0.0017,16.1916,5.0577,-45.9451,
5.4380,0.0017,0.0230,1.0288,0.0179,0.0037,-0.0095,0.0053,-0.0083,-0.0017,16.1916,5.0577,-45.9451,
5.4640,0.0032,0.0214,1.0246,0.0179,0.0037,-0.0095,0.0053,-0.0083,-0.0017,16.1916,5.0577,-45.9451,
5.4650,0.0032,0.0214,1.0246,0.0179,0.0037,-0.0095,0.0053,-0.0083,-0.0017,16.2090,5.0366,-45.9413,
5.4660,0.0032,0.0214,1.0246,0.0179,0.0037,-0.0095,0.0003,-0.0048,-0.0016,16.2090,5.0366,-45.9413,
5.4950,0.0032,0.0214,1.0246,0.0226,0.0070,0.0153,0.0003,-0.0048,-0.0016,16.2090,5.0366,-45.9413,
5.4970,0.0032,0.0214,1.0246,0.0226,0.0070,0.0153,0.0015,-0.0112,-0.0016,16.2090,5.0366,-45.9413,
5.4970,-0.0004,0.0186,1.0256,0.0226,0.0070,0.0153,0.0015,-0.0112,-0.0016,16.2090,5.0366,-45.9413,
5.4970,-0.0015,0.0207,1.0264,0.0226,0.0070,0.0153,0.0015,-0.0112,-0.0016,16.2090,5.0366,-45.9413,
5.5450,-0.0044,0.0229,1.0203,0.0226,0.0070,0.0153,0.0015,-0.0112,-0.0016,16.2090,5.0366,-45.9413,
5.5470,-0.0081,0.0226,1.0192,0.0226,0.0070,0.0153,0.0015,-0.0112,-0.0016,16.2090,5.0366,-45.9413,
5.5480,-0.0081,0.0226,1.0192,0.0226,0.0070,0.0153,-0.0003,0.0056,-0.0016,16.2090,5.0366,-45.9413,
5.5490,-0.0081,0.0226,1.0192,0.0226,0.0070,0.0153,-0.0003,0.0056,-0.0016,16.1967,5.0221,-45.9467,
5.5740,-0.0097,0.0234,1.0247,0.0226,0.0070,0.0153,-0.0003,0.0056,-0.0016,16.1967,5.0221,-45.9467,
5.5750,-0.0097,0.0234,1.0247,0.0226,0.0070,0.0153,0.0021,-0.0064,-0.0041,16.1967,5.0221,-45.9467,
5.5760,-0.0097,0.0234,1.0247,0.0386,0.0115,0.0096,0.0021,-0.0064,-0.0041,16.1967,5.0221,-45.9467,
5.5760,-0.0087,0.0212,1.0221,0.0386,0.0115,0.0096,0.0021,-0.0064,-0.0041,16.1967,5.0221,-45.9467,
5.6040,-0.0101,0.0219,1.0264,0.0386,0.0115,0.0096,0.0021,-0.0064,-0.0041,16.1967,5.0221,-45.9467,
5.6060,-0.0101,0.0219,1.0264,0.0386,0.0115,0.0096,0.0021,-0.0064,-0.0041,16.1799,5.0102,-45.9233,
5.6320,-0.0101,0.0219,1.0264,-0.0378,0.0227,-0.0267,0.0021,-0.0064,-0.0041,16.1799,5.0102,-45.9233,
5.6340,-0.0101,0.0219,1.0189,-0.0378,0.0227,-0.0267,0.0021,-0.0064,-0.0041,16.1799,5.0102,-45.9233,
5.6340,-0.0087,0.0202,1.0301,-0.0378,0.0227,-0.0267,0.0021,-0.0064,-0.0041,16.1799,5.0102,-45.9233,
5.6350,-0.0087,0.0202,1.0301,-0.0378,0.0227,-0.0267,0.0085,0.0022,-0.0056,16.1799,5.0102,-45.9233,
5.6670,-0.0002,0.0224,1.0223,-0.0378,0.0227,-0.0267,0.0085,0.0022,-0.0056,16.1799,5.0102,-45.9233,
5.6680,-0.0002,0.0224,1.0223,-0.0378,0.0227,-0.0267,0.0085,0.0022,-0.0056,16.1214,4.9796,-45.9268,
5.6690,-0.0002,0.0224,1.0223,-0.0378,0.0227,-0.0267,0.0009,-0.0051,-0.0026,16.1214,4.9796,-45.9268,
5.7090,0.0028,0.0252,1.0249,-0.0378,0.0227,-0.0267,0.0009,-0.0051,-0.0026,16.1214,4.9796,-45.9268,
5.7100,0.0028,0.0252,1.0249,-0.0378,0.0227,-0.0267,-0.0083,0.0208,0.0032,16.1214,4.9796,-45.9268,
5.7110,0.0006,0.0245,1.0307,-0.0378,0.0227,-0.0267,-0.0083,0.0208,0.0032,16.1214,4.9796,-45.9268,
5.7120,-0.0057,0.0196,1.0186,-0.0378,0.0227,-0.0267,-0.0083,0.0208,0.0032,16.1214,4.9796,-45.9268,
5.7120,-0.0057,0.0196,1.0186,-0.0272,0.0072,0.0117,-0.0083,0.0208,0.0032,16.1214,4.9796,-45.9268,
5.7460,-0.0057,0.0196,1.0186,-0.0272,0.0072,0.0117,0.0311,0.0016,-0.0010,16.1214,4.9796,-45.9268,
5.7470,-0.0104,0.0127,1.0218,-0.0272,0.0072,0.0117,0.0311,0.0016,-0.0010,16.1214,4.9796,-45.9268,
5.7470,-0.0104,0.0127,1.0218,-0.0272,0.0072,0.0117,0.0311,0.0016,-0.0010,16.0927,4.9721,-45.9244,
5.7690,-0.0106,0.0220,1.0152,-0.0272,0.0072,0.0117,0.0311,0.0016,-0.0010,16.0927,4.9721,-45.9244,
5.7710,-0.0106,0.0220,1.0152,-0.0272,0.0072,0.0117,-0.0254,-0.0085,0.0002,16.0927,4.9721,-45.9244,
5.7720,-0.0062,0.0285,1.0379,-0.0272,0.0072,0.0117,-0.0254,-0.0085,0.0002,16.0927,4.9721,-45.9244,
5.7720,-0.0062,0.0285,1.0379,0.0402,0.0269,-0.0028,-0.0254,-0.0085,0.0002,16.0927,4.9721,-45.9244,
5.8040,-0.0062,0.0285,1.0379,0.0402,0.0269,-0.0028,-0.0254,-0.0085,0.0002,16.0316,4.9506,-45.8991,
5.8050,-0.0016,0.0218,1.0232,0.0402,0.0269,-0.0028,-0.0254,-0.0085,0.0002,16.0316,4.9506,-45.8991,
5.8460,0.0024,0.0204,1.0234,0.0402,0.0269,-0.0028,-0.0254,-0.0085,0.0002,16.0316,4.9506,-45.8991,
5.8470,-0.0001,0.0228,1.0233,0.0402,0.0269,-0.0028,-0.0254,-0.0085,0.0002,16.0316,4.9506,-45.8991,
5.8470,-0.0012,0.0218,1.0266,0.0402,0.0269,-0.0028,-0.0254,-0.0085,0.0002,16.0316,4.9506,-45.8991,
5.8480,-0.0012,0.0218,1.0266,0.0402,0.0269,-0.0028,0.0018,-0.0241,-0.0010,16.0316,4.9506,-45.8991,
5.8480,-0.0012,0.0218,1.0266,0.0402,0.0269,-0.0028,0.0030,0.0138,0.0048,16.0316,4.9506,-45.8991,
5.8490,-0.0012,0.0218,1.0266,-0.0338,0.0065,0.0079,0.0030,0.0138,0.0048,16.0316,4.9506,-45.8991,
5.8650,-0.0012,0.0218,1.0266,-0.0338,0.0065,0.0079,0.0030,0.0138,0.0048,16.0316,4.9358,-45.9147,
5.9040,-0.0012,0.0218,1.0266,-0.0338,0.0065,0.0079,0.0046,0.0019,0.0008,16.0316,4.9358,-45.9147,
5.9050,-0.0045,0.0191,1.0261,-0.0338,0.0065,0.0079,0.0046,0.0019,0.0008,16.0316,4.9358,-45.9147,
5.9060,-0.0081,0.0247,1.0261,-0.0338,0.0065,0.0079,0.0046,0.0019,0.0008,16.0316,4.9358,-45.9147,
5.9060,-0.0099,0.0284,1.0234,-0.0338,0.0065,0.0079,0.0046,0.0019,0.0008,16.0316,4.9358,-45.9147,
5.9060,-0.0099,0.0284,1.0234,0.0458,0.0046,-0.0021,0.0046,0.0019,0.0008,16.0316,4.9358,-45.9147,
5.9440,-0.0099,0.0284,1.0234,0.0458,0.0046,-0.0021,-0.0012,-0.0006,-0.0013,16.0316,4.9358,-45.9147,
5.9460,-0.0099,0.0284,1.0234,0.0458,0.0046,-0.0021,-0.0012,-0.0006,-0.0013,16.0234,4.9072,-45.9504,
5.9460,-0.0101,0.0254,1.0255,0.0458,0.0046,-0.0021,-0.0012,-0.0006,-0.0013,16.0234,4.9072,-45.9504,
5.9470,-0.0114,0.0221,1.0268,0.0458,0.0046,-0.0021,-0.0012,-0.0006,-0.0013,16.0234,4.9072,-45.9504,
5.9780,-0.0081,0.0212,1.0240,0.0458,0.0046,-0.0021,-0.0012,-0.0006,-0.0013,16.0234,4.9072,-45.9504,
5.9790,-0.0081,0.0212,1.0240,0.0458,0.0046,-0.0021,-0.0101,-0.0112,-0.0016,16.0234,4.9072,-45.9504,
5.9830,-0.0081,0.0212,1.0240,-0.0367,0.0332,0.0072,-0.0101,-0.0112,-0.0016,16.0234,4.9072,-45.9504,
5.9840,-0.0065,0.0215,1.0174,-0.0367,0.0332,0.0072,-0.0101,-0.0112,-0.0016,16.0234,4.9072,-45.9504,
6.0040,-0.0065,0.0215,1.0174,-0.0367,0.0332,0.0072,-0.0046,-0.0073,-0.0007,16.0234,4.9072,-45.9504,
6.0050,-0.0044,0.0232,1.0344,-0.0367,0.0332,0.0072,-0.0046,-0.0073,-0.0007,16.0234,4.9072,-45.9504,
6.0060,-0.0044,0.0232,1.0344,-0.0367,0.0332,0.0072,-0.0046,-0.0073,-0.0007,16.0406,4.8976,-45.9326,
6.0420,-0.0055,0.0221,1.0141,-0.0367,0.0332,0.0072,-0.0046,-0.0073,-0.0007,16.0406,4.8976,-45.9326,
6.0440,-0.0055,0.0221,1.0141,-0.0367,0.0332,0.0072,-0.0043,0.0132,0.0042,16.0406,4.8976,-45.9326,
6.0440,-0.0056,0.0195,1.0282,-0.0367,0.0332,0.0072,-0.0043,0.0132,0.0042,16.0406,4.8976,-45.9326,
6.0450,-0.0056,0.0195,1.0282,-0.0391,0.0127,-0.0080,-0.0043,0.0132,0.0042,16.0406,4.8976,-45.9326,
6.0650,-0.0056,0.0195,1.0282,-0.0391,0.0127,-0.0080,-0.0043,0.0132,0.0042,16.0641,4.8861,-45.9101,
6.0670,-0.0024,0.0218,1.0299,-0.0391,0.0127,-0.0080,-0.0043,0.0132,0.0042,16.0641,4.8861,-45.9101,
6.1100,-0.0023,0.0234,1.0260,-0.0391,0.0127,-0.0080,-0.0043,0.0132,0.0042,16.0641,4.8861,-45.9101,
6.1110,-0.0023,0.0234,1.0260,-0.0391,0.0127,-0.0080,-0.0089,-0.0177,-0.0001,16.0641,4.8861,-45.9101,
6.1130,-0.0001,0.0206,1.0315,-0.0391,0.0127,-0.0080,-0.0089,-0.0177,-0.0001,16.0641,4.8861,-45.9101,
6.1270,-0.0001,0.0206,1.0315,-0.0391,0.0127,-0.0080,-0.0135,0.0071,0.0072,16.0641,4.8861,-45.9101,
6.1300,-0.0024,0.0196,1.0264,-0.0391,0.0127,-0.0080,-0.0135,0.0071,0.0072,16.0641,4.8861,-45.9101,
6.1310,-0.0024,0.0196,1.0264,-0.0021,0.0127,0.0247,-0.0135,0.0071,0.0072,16.0641,4.8861,-45.9101,
6.1430,-0.0024,0.0196,1.0264,-0.0021,0.0127,0.0247,-0.0135,0.0071,0.0072,16.0732,4.8743,-45.9265,
6.1450,-0.0050,0.0214,1.0212,-0.0021,0.0127,0.0247,-0.0135,0.0071,0.0072,16.0732,4.8743,-45.9265,
6.1770,-0.0050,0.0214,1.0212,-0.0021,0.0127,0.0247,-0.0089,0.0004,0.0057,16.0732,4.8743,-45.9265,
6.1780,-0.0062,0.0225,1.0208,-0.0021,0.0127,0.0247,-0.0089,0.0004,0.0057,16.0732,4.8743,-45.9265,
6.1780,-0.0105,0.0202,1.0135,-0.0021,0.0127,0.0247,-0.0089,0.0004,0.0057,16.0732,4.8743,-45.9265,
6.1790,-0.0105,0.0202,1.0135,0.0327,0.0189,0.0249,-0.0089,0.0004,0.0057,16.0732,4.8743,-45.9265,
6.2040,-0.0120,0.0224,1.0279,0.0327,0.0189,0.0249,-0.0089,0.0004,0.0057,16.0732,4.8743,-45.9265,
6.2050,-0.0120,0.0224,1.0279,0.0327,0.0189,0.0249,-0.0089,0.0004,0.0057,16.0740,4.8716,-45.9533,
6.2050,-0.0120,0.0224,1.0279,0.0327,0.0189,0.0249,-0.0098,0.0224,0.0048,16.0740,4.8716,-45.9533,
6.2440,-0.0120,0.0224,1.0279,0.0327,0.0189,0.0249,-0.0018,-0.0057,-0.0001,16.0740,4.8716,-45.9533,
6.2450,-0.0106,0.0247,1.0251,0.0327,0.0189,0.0249,-0.0018,-0.0057,-0.0001,16.0740,4.8716,-45.9533,
6.2450,-0.0095,0.0224,1.0190,0.0327,0.0189,0.0249,-0.0018,-0.0057,-0.0001,16.0740,4.8716,-45.9533,
6.2540,-0.0095,0.0224,1.0190,-0.0250,0.0159,-0.0463,-0.0018,-0.0057,-0.0001,16.0740,4.8716,-45.9533,
6.2550,-0.0111,0.0215,1.0218,-0.0250,0.0159,-0.0463,-0.0018,-0.0057,-0.0001,16.0740,4.8716,-45.9533,
6.2630,-0.0111,0.0215,1.0218,-0.0250,0.0159,-0.0463,-0.0018,-0.0057,-0.0001,16.0487,4.8515,-45.9356,
6.3090,-0.0111,0.0215,1.0218,-0.0250,0.0159,-0.0463,0.0009,0.0089,0.0005,16.0487,4.8515,-45.9356,
6.3100,-0.0112,0.0231,1.0253,-0.0250,0.0159,-0.0463,0.0009,0.0089,0.0005,16.0487,4.8515,-45.9356,
6.3100,-0.0078,0.0231,1.0261,-0.0250,0.0159,-0.0463,0.0009,0.0089,0.0005,16.0487,4.8515,-45.9356,
6.3130,-0.0078,0.0231,1.0261,-0.0250,0.0159,-0.0463,-0.0086,0.0022,0.0005,16.0487,4.8515,-45.9356,
6.3130,-0.0078,0.0231,1.0261,-0.0410,0.0337,-0.0096,-0.0086,0.0022,0.0005,16.0487,4.8515,-45.9356,
6.3140,-0.0029,0.0241,1.0164,-0.0410,0.0337,-0.0096,-0.0086,0.0022,0.0005,16.0487,4.8515,-45.9356,
6.3440,-0.0034,0.0248,1.0247,-0.0410,0.0337,-0.0096,-0.0086,0.0022,0.0005,16.0487,4.8515,-45.9356,
6.3450,-0.0034,0.0248,1.0247,-0.0410,0.0337,-0.0096,-0.0086,0.0022,0.0005,16.0959,4.8510,-45.9688,
6.3760,-0.0034,0.0248,1.0247,-0.0410,0.0337,-0.0096,-0.0058,0.0355,0.0017,16.0959,4.8510,-45.9688,
6.3760,-0.0109,0.0199,1.0295,-0.0410,0.0337,-0.0096,-0.0058,0.0355,0.0017,16.0959,4.8510,-45.9688,
6.3760,-0.0158,0.0107,1.0197,-0.0410,0.0337,-0.0096,-0.0058,0.0355,0.0017,16.0959,4.8510,-45.9688,
6.3910,-0.0158,0.0107,1.0197,0.0040,0.0347,-0.0142,-0.0058,0.0355,0.0017,16.0959,4.8510,-45.9688,
6.3920,-0.0139,0.0190,1.0112,0.0040,0.0347,-0.0142,-0.0058,0.0355,0.0017,16.0959,4.8510,-45.9688,
6.3920,-0.0139,0.0190,1.0112,0.0040,0.0347,-0.0142,0.0061,-0.0137,-0.0023,16.0959,4.8510,-45.9688,
6.4030,-0.0139,0.0190,1.0112,0.0040,0.0347,-0.0142,0.0061,-0.0137,-0.0023,16.1372,4.8791,-45.9386,
6.4160,-0.0086,0.0270,1.0338,0.0040,0.0347,-0.0142,0.0061,-0.0137,-0.0023,16.1372,4.8791,-45.9386,
6.4430,-0.0084,0.0184,1.0284,0.0040,0.0347,-0.0142,0.0061,-0.0137,-0.0023,16.1372,4.8791,-45.9386,
6.4430,-0.0084,0.0184,1.0284,0.0040,0.0347,-0.0142,-0.0312,-0.0152,0.0045,16.1372,4.8791,-45.9386,
6.4490,-0.0015,0.0149,1.0247,0.0040,0.0347,-0.0142,-0.0312,-0.0152,0.0045,16.1372,4.8791,-45.9386,
6.4500,-0.0015,0.0149,1.0247,-0.0578,-0.0106,-0.0239,-0.0312,-0.0152,0.0045,16.1372,4.8791,-45.9386,
6.4630,-0.0015,0.0149,1.0247,-0.0578,-0.0106,-0.0239,-0.0312,-0.0152,0.0045,16.1780,4.8925,-45.9280,
6.5090,-0.0015,0.0149,1.0247,-0.0578,-0.0106,-0.0239,-0.0049,-0.0186,0.0039,16.1780,4.8925,-45.9280,
6.5090,0.0007,0.0214,1.0200,-0.0578,-0.0106,-0.0239,-0.0049,-0.0186,0.0039,16.1780,4.8925,-45.9280,
6.5100,0.0009,0.0203,1.0229,-0.0578,-0.0106,-0.0239,-0.0049,-0.0186,0.0039,16.1780,4.8925,-45.9280,
6.5100,-0.0048,0.0163,1.0297,-0.0578,-0.0106,-0.0239,-0.0049,-0.0186,0.0039,16.1780,4.8925,-45.9280,
6.5100,-0.0048,0.0163,1.0297,-0.0578,-0.0106,-0.0239,-0.0040,0.0123,0.0066,16.1780,4.8925,-45.9280,
6.5280,-0.0048,0.0163,1.0297,0.0153,0.0155,0.0313,-0.0040,0.0123,0.0066,16.1780,4.8925,-45.9280,
6.5290,-0.0100,0.0199,1.0257,0.0153,0.0155,0.0313,-0.0040,0.0123,0.0066,16.1780,4.8925,-45.9280,
6.5470,-0.0100,0.0199,1.0257,0.0153,0.0155,0.0313,-0.0040,0.0123,0.0066,16.1962,4.9076,-45.9649,
6.5760,-0.0132,0.0264,1.0225,0.0153,0.0155,0.0313,-0.0040,0.0123,0.0066,16.1962,4.9076,-45.9649,
6.5770,-0.0132,0.0264,1.0225,0.0153,0.0155,0.0313,-0.0031,-0.0079,0.0042,16.1962,4.9076,-45.9649,
6.5770,-0.0138,0.0268,1.0208,0.0153,0.0155,0.0313,-0.0031,-0.0079,0.0042,16.1962,4.9076,-45.9649,
6.5860,-0.0147,0.0218,1.0239,0.0153,0.0155,0.0313,-0.0031,-0.0079,0.0042,16.1962,4.9076,-45.9649,
6.5870,-0.0147,0.0218,1.0239,0.0153,0.0155,0.0313,-0.0113,-0.0033,0.0017,16.1962,4.9076,-45.9649,
6.5870,-0.0147,0.0218,1.0239,0.0186,0.0113,0.0137,-0.0113,-0.0033,0.0017,16.1962,4.9076,-45.9649,
6.6040,-0.0147,0.0218,1.0239,0.0186,0.0113,0.0137,-0.0113,-0.0033,0.0017,16.2208,4.9176,-45.9851,
6.6440,-0.0133,0.0176,1.0245,0.0186,0.0113,0.0137,-0.0113,-0.0033,0.0017,16.2208,4.9176,-45.9851,
6.6460,-0.0112,0.0181,1.0219,0.0186,0.0113,0.0137,-0.0113,-0.0033,0.0017,16.2208,4.9176,-45.9851,
6.6460,-0.0112,0.0181,1.0219,0.0186,0.0113,0.0137,-0.0101,-0.0057,-0.0020,16.2208,4.9176,-45.9851,
6.6630,-0.0112,0.0181,1.0219,0.0186,0.0113,0.0137,-0.0101,-0.0057,-0.0020,16.2219,4.9346,-45.9853,
6.6650,-0.0087,0.0213,1.0177,0.0186,0.0113,0.0137,-0.0101,-0.0057,-0.0020,16.2219,4.9346,-45.9853,
6.6650,-0.0034,0.0243,1.0319,0.0186,0.0113,0.0137,-0.0101,-0.0057,-0.0020,16.2219,4.9346,-45.9853,
6.6650,-0.0034,0.0243,1.0319,0.0186,0.0113,0.0137,-0.0086,-0.0054,0.0017,16.2219,4.9346,-45.9853,
6.6660,-0.0034,0.0243,1.0319,-0.0719,0.0550,-0.0156,-0.0086,-0.0054,0.0017,16.2219,4.9346,-45.9853,
6.7100,-0.0075,0.0185,1.0042,-0.0719,0.0550,-0.0156,-0.0086,-0.0054,0.0017,16.2219,4.9346,-45.9853,
6.7110,-0.0090,0.0147,1.0415,-0.0719,0.0550,-0.0156,-0.0086,-0.0054,0.0017,16.2219,4.9346,-45.9853,
6.7110,-0.0090,0.0147,1.0415,-0.0719,0.0550,-0.0156,-0.0037,0.0098,0.0002,16.2219,4.9346,-45.9853,
6.7240,-0.0090,0.0147,1.0415,-0.0189,0.0243,0.0007,-0.0037,0.0098,0.0002,16.2219,4.9346,-45.9853,
6.7250,-0.0051,0.0196,1.0188,-0.0189,0.0243,0.0007,-0.0037,0.0098,0.0002,16.2219,4.9346,-45.9853,
6.7440,-0.0064,0.0198,1.0207,-0.0189,0.0243,0.0007,-0.0037,0.0098,0.0002,16.2219,4.9346,-45.9853,
6.7450,-0.0064,0.0198,1.0207,-0.0189,0.0243,0.0007,-0.0015,-0.0131,-0.0026,16.2219,4.9346,-45.9853,
6.7450,-0.0064,0.0198,1.0207,-0.0189,0.0243,0.0007,-0.0015,-0.0131,-0.0026,16.2583,4.9395,-45.9648,
6.7760,-0.0007,0.0165,1.0278,-0.0189,0.0243,0.0007,-0.0015,-0.0131,-0.0026,16.2583,4.9395,-45.9648,
6.8010,-0.0034,0.0162,1.0211,-0.0189,0.0243,0.0007,-0.0015,-0.0131,-0.0026,16.2583,4.9395,-45.9648,
6.8020,-0.0034,0.0162,1.0211,-0.0189,0.0243,0.0007,-0.0067,0.0022,0.0026,16.2583,4.9395,-45.9648,
6.8030,-0.0034,0.0162,1.0211,-0.0061,0.0019,-0.0229,-0.0067,0.0022,0.0026,16.2583,4.9395,-45.9648,
6.8030,-0.0089,0.0202,1.0236,-0.0061,0.0019,-0.0229,-0.0067,0.0022,0.0026,16.2583,4.9395,-45.9648,
6.8040,-0.0089,0.0202,1.0236,-0.0061,0.0019,-0.0229,-0.0067,0.0022,0.0026,16.3005,4.9601,-45.9684,
6.8430,-0.0089,0.0202,1.0236,-0.0061,0.0019,-0.0229,-0.0128,-0.0082,0.0020,16.3005,4.9601,-45.9684,
6.8450,-0.0089,0.0217,1.0216,-0.0061,0.0019,-0.0229,-0.0128,-0.0082,0.0020,16.3005,4.9601,-45.9684,
6.8460,-0.0114,0.0188,1.0186,-0.0061,0.0019,-0.0229,-0.0128,-0.0082,0.0020,16.3005,4.9601,-45.9684,
6.8610,-0.0114,0.0188,1.0186,0.0171,0.0016,-0.0021,-0.0128,-0.0082,0.0020,16.3005,4.9601,-45.9684,
6.8630,-0.0114,0.0188,1.0186,0.0171,0.0016,-0.0021,0.0009,0.0052,-0.0007,16.3005,4.9601,-45.9684,
6.8630,-0.0141,0.0173,1.0216,0.0171,0.0016,-0.0021,0.0009,0.0052,-0.0007,16.3005,4.9601,-45.9684,
6.8640,-0.0141,0.0173,1.0216,0.0171,0.0016,-0.0021,0.0009,0.0052,-0.0007,16.2993,4.9778,-45.9527,
6.9100,-0.0141,0.0173,1.0216,0.0171,0.0016,-0.0021,0.0040,-0.0042,-0.0026,16.2993,4.9778,-45.9527,
6.9110,-0.0138,0.0190,1.0219,0.0171,0.0016,-0.0021,0.0040,-0.0042,-0.0026,16.2993,4.9778,-45.9527,
6.9120,-0.0122,0.0213,1.0232,0.0171,0.0016,-0.0021,0.0040,-0.0042,-0.0026,16.2993,4.9778,-45.9527,
6.9390,-0.0122,0.0213,1.0232,0.0171,0.0016,-0.0021,0.0055,0.0010,-0.0007,16.2993,4.9778,-45.9527,
6.9400,-0.0112,0.0212,1.0228,0.0171,0.0016,-0.0021,0.0055,0.0010,-0.0007,16.2993,4.9778,-45.9527,
6.9410,-0.0112,0.0212,1.0228,-0.0488,0.0111,-0.0286,0.0055,0.0010,-0.0007,16.2993,4.9778,-45.9527,
6.9420,-0.0098,0.0181,1.0173,-0.0488,0.0111,-0.0286,0.0055,0.0010,-0.0007,16.2993,4.9778,-45.9527,
6.9440,-0.0098,0.0181,1.0173,-0.0488,0.0111,-0.0286,0.0055,0.0010,-0.0007,16.2691,4.9686,-45.9855,
6.9780,-0.0095,0.0202,1.0203,-0.0488,0.0111,-0.0286,0.0055,0.0010,-0.0007,16.2691,4.9686,-45.9855,
6.9790,-0.0071,0.0210,1.0268,-0.0488,0.0111,-0.0286,0.0055,0.0010,-0.0007,16.2691,4.9686,-45.9855,
6.9800,-0.0071,0.0210,1.0268,-0.0488,0.0111,-0.0286,0.0024,0.0007,-0.0013,16.2691,4.9686,-45.9855,
6.9970,-0.0071,0.0210,1.0268,-0.0388,0.0183,-0.0169,0.0024,0.0007,-0.0013,16.2691,4.9686,-45.9855,
6.9990,-0.0021,0.0197,1.0189,-0.0388,0.0183,-0.0169,0.0024,0.0007,-0.0013,16.2691,4.9686,-45.9855,
7.0040,-0.0021,0.0197,1.0189,-0.0388,0.0183,-0.0169,0.0024,0.0007,-0.0013,16.2071,4.9769,-45.9566,
7.0440,-0.0021,0.0197,1.0189,-0.0388,0.0183,-0.0169,-0.0116,0.0062,-0.0032,16.2071,4.9769,-45.9566,
7.0450,-0.0011,0.0204,1.0213,-0.0388,0.0183,-0.0169,-0.0116,0.0062,-0.0032,16.2071,4.9769,-45.9566,
7.0460,-0.0068,0.0203,1.0241,-0.0388,0.0183,-0.0169,-0.0116,0.0062,-0.0032,16.2071,4.9769,-45.9566,
7.0640,-0.0150,0.0140,1.0207,-0.0388,0.0183,-0.0169,-0.0116,0.0062,-0.0032,16.2071,4.9769,-45.9566,
7.0660,-0.0150,0.0140,1.0207,-0.0388,0.0183,-0.0169,0.0339,0.0166,-0.0035,16.2071,4.9769,-45.9566,
7.0660,-0.0150,0.0140,1.0207,-0.0388,0.0183,-0.0169,0.0339,0.0166,-0.0035,16.2267,4.9730,-45.9234,
7.0760,-0.0150,0.0140,1.0207,0.0239,0.0079,-0.0124,0.0339,0.0166,-0.0035,16.2267,4.9730,-45.9234,
7.0770,-0.0149,0.0180,1.0028,0.0239,0.0079,-0.0124,0.0339,0.0166,-0.0035,16.2267,4.9730,-45.9234,
7.1100,-0.0149,0.0180,1.0028,0.0239,0.0079,-0.0124,-0.0180,-0.0030,-0.0020,16.2267,4.9730,-45.9234,
7.1110,-0.0131,0.0254,1.0247,0.0239,0.0079,-0.0124,-0.0180,-0.0030,-0.0020,16.2267,4.9730,-45.9234,
7.1340,-0.0131,0.0254,1.0247,0.0239,0.0079,-0.0124,-0.0144,-0.0180,0.0008,16.2267,4.9730,-45.9234,
7.1350,-0.0126,0.0220,1.0217,0.0239,0.0079,-0.0124,-0.0144,-0.0180,0.0008,16.2267,4.9730,-45.9234,
7.1350,-0.0093,0.0162,1.0244,0.0239,0.0079,-0.0124,-0.0144,-0.0180,0.0008,16.2267,4.9730,-45.9234,
7.1360,-0.0093,0.0162,1.0244,-0.0329,-0.0022,-0.0544,-0.0144,-0.0180,0.0008,16.2267,4.9730,-45.9234,
7.1440,-0.0093,0.0162,1.0244,-0.0329,-0.0022,-0.0544,-0.0144,-0.0180,0.0008,16.2334,4.9884,-45.9012,
7.1770,-0.0093,0.0162,1.0244,-0.0329,-0.0022,-0.0544,-0.0006,-0.0021,-0.0010,16.2334,4.9884,-45.9012,
7.1780,-0.0057,0.0180,1.0211,-0.0329,-0.0022,-0.0544,-0.0006,-0.0021,-0.0010,16.2334,4.9884,-45.9012,
7.1780,-0.0044,0.0197,1.0218,-0.0329,-0.0022,-0.0544,-0.0006,-0.0021,-0.0010,16.2334,4.9884,-45.9012,
7.2040,-0.0044,0.0197,1.0218,-0.0329,-0.0022,-0.0544,-0.0006,-0.0021,-0.0010,16.2913,4.9664,-45.8859,
7.2060,-0.0046,0.0168,1.0232,-0.0329,-0.0022,-0.0544,-0.0006,-0.0021,-0.0010,16.2913,4.9664,-45.8859,
7.2120,-0.0046,0.0168,1.0232,-0.0329,-0.0022,-0.0544,-0.0043,0.0010,-0.0001,16.2913,4.9664,-45.8859,
7.2120,-0.0097,0.0165,1.0242,-0.0329,-0.0022,-0.0544,-0.0043,0.0010,-0.0001,16.2913,4.9664,-45.8859,
7.2130,-0.0097,0.0165,1.0242,-0.0278,0.0228,0.0081,-0.0043,0.0010,-0.0001,16.2913,4.9664,-45.8859,
7.2450,-0.0139,0.0214,1.0222,-0.0278,0.0228,0.0081,-0.0043,0.0010,-0.0001,16.2913,4.9664,-45.8859,
7.2650,-0.0139,0.0214,1.0222,-0.0278,0.0228,0.0081,-0.0043,0.0010,-0.0001,16.3150,4.9795,-45.8805,
7.2670,-0.0139,0.0214,1.0222,-0.0278,0.0228,0.0081,-0.0031,-0.0061,0.0017,16.3150,4.9795,-45.8805,
7.2680,-0.0152,0.0240,1.0162,-0.0278,0.0228,0.0081,-0.0031,-0.0061,0.0017,16.3150,4.9795,-45.8805,
7.2700,-0.0130,0.0224,1.0210,-0.0278,0.0228,0.0081,-0.0031,-0.0061,0.0017,16.3150,4.9795,-45.8805,
7.2710,-0.0130,0.0224,1.0210,0.0104,0.0012,0.0023,-0.0031,-0.0061,0.0017,16.3150,4.9795,-45.8805,
7.3110,-0.0108,0.0188,1.0184,0.0104,0.0012,0.0023,-0.0031,-0.0061,0.0017,16.3150,4.9795,-45.8805,
7.3120,-0.0095,0.0169,1.0223,0.0104,0.0012,0.0023,-0.0031,-0.0061,0.0017,16.3150,4.9795,-45.8805,
7.3130,-0.0095,0.0169,1.0223,0.0104,0.0012,0.0023,-0.0110,-0.0088,0.0014,16.3150,4.9795,-45.8805,
7.3440,-0.0070,0.0192,1.0158,0.0104,0.0012,0.0023,-0.0110,-0.0088,0.0014,16.3150,4.9795,-45.8805,
7.3450,-0.0070,0.0192,1.0158,0.0104,0.0012,0.0023,-0.0131,-0.0082,0.0008,16.3150,4.9795,-45.8805,
7.3460,-0.0070,0.0192,1.0158,0.0104,0.0012,0.0023,-0.0131,-0.0082,0.0008,16.3387,4.9811,-45.8640,
7.3470,-0.0060,0.0220,1.0313,0.0104,0.0012,0.0023,-0.0131,-0.0082,0.0008,16.3387,4.9811,-45.8640,
7.3480,-0.0060,0.0220,1.0313,-0.0606,0.0455,-0.0240,-0.0131,-0.0082,0.0008,16.3387,4.9811,-45.8640,
7.3770,-0.0060,0.0220,1.0313,-0.0606,0.0455,-0.0240,-0.0061,0.0080,0.0002,16.3387,4.9811,-45.8640,
7.3780,-0.0075,0.0201,0.9971,-0.0606,0.0455,-0.0240,-0.0061,0.0080,0.0002,16.3387,4.9811,-45.8640,
7.4050,-0.0075,0.0201,0.9971,-0.0606,0.0455,-0.0240,-0.0061,0.0080,0.0002,16.3320,4.9730,-45.8632,
7.4080,-0.0152,0.0148,1.0378,-0.0606,0.0455,-0.0240,-0.0061,0.0080,0.0002,16.3320,4.9730,-45.8632,
7.4090,-0.0103,0.0187,1.0147,-0.0606,0.0455,-0.0240,-0.0061,0.0080,0.0002,16.3320,4.9730,-45.8632,
7.4100,-0.0103,0.0187,1.0147,-0.0606,0.0455,-0.0240,-0.0009,-0.0100,-0.0016,16.3320,4.9730,-45.8632,
7.4100,-0.0103,0.0187,1.0147,-0.0036,0.0143,0.0006,-0.0009,-0.0100,-0.0016,16.3320,4.9730,-45.8632,
7.4450,-0.0078,0.0214,1.0214,-0.0036,0.0143,0.0006,-0.0009,-0.0100,-0.0016,16.3320,4.9730,-45.8632,
7.4650,-0.0078,0.0214,1.0214,-0.0036,0.0143,0.0006,0.0015,-0.0146,0.0002,16.3320,4.9730,-45.8632,
7.4670,-0.0029,0.0185,1.0239,-0.0036,0.0143,0.0006,0.0015,-0.0146,0.0002,16.3320,4.9730,-45.8632,
7.4670,-0.0029,0.0185,1.0239,-0.0036,0.0143,0.0006,0.0015,-0.0146,0.0002,16.3077,4.9735,-45.8181,
7.4850,-0.0029,0.0185,1.0239,-0.0036,0.0143,0.0006,-0.0067,-0.0030,0.0023,16.3077,4.9735,-45.8181,
7.4860,-0.0032,0.0165,1.0207,-0.0036,0.0143,0.0006,-0.0067,-0.0030,0.0023,16.3077,4.9735,-45.8181,
7.4860,-0.0100,0.0179,1.0212,-0.0036,0.0143,0.0006,-0.0067,-0.0030,0.0023,16.3077,4.9735,-45.8181,
7.4870,-0.0100,0.0179,1.0212,-0.0321,0.0081,-0.0440,-0.0067,-0.0030,0.0023,16.3077,4.9735,-45.8181,
7.5100,-0.0116,0.0199,1.0208,-0.0321,0.0081,-0.0440,-0.0067,-0.0030,0.0023,16.3077,4.9735,-45.8181,
7.5450,-0.0116,0.0199,1.0208,-0.0321,0.0081,-0.0440,-0.0162,-0.0097,0.0023,16.3077,4.9735,-45.8181,
7.5460,-0.0109,0.0197,1.0210,-0.0321,0.0081,-0.0440,-0.0162,-0.0097,0.0023,16.3077,4.9735,-45.8181,
7.5470,-0.0109,0.0197,1.0210,0.0080,0.0106,0.0021,-0.0162,-0.0097,0.0023,16.3077,4.9735,-45.8181,
7.5470,-0.0100,0.0188,1.0191,0.0080,0.0106,0.0021,-0.0162,-0.0097,0.0023,16.3077,4.9735,-45.8181,
7.5480,-0.0100,0.0188,1.0191,0.0080,0.0106,0.0021,-0.0162,-0.0097,0.0023,16.3446,4.9808,-45.8044,
7.5780,-0.0100,0.0188,1.0191,0.0080,0.0106,0.0021,0.0033,-0.0109,-0.0023,16.3446,4.9808,-45.8044,
7.5800,-0.0098,0.0180,1.0219,0.0080,0.0106,0.0021,0.0033,-0.0109,-0.0023,16.3446,4.9808,-45.8044,
7.6050,-0.0103,0.0186,1.0225,0.0080,0.0106,0.0021,0.0033,-0.0109,-0.0023,16.3446,4.9808,-45.8044,
7.6060,-0.0103,0.0186,1.0225,0.0080,0.0106,0.0021,0.0036,-0.0061,-0.0044,16.3446,4.9808,-45.8044,
7.6070,-0.0112,0.0208,1.0221,0.0080,0.0106,0.0021,0.0036,-0.0061,-0.0044,16.3446,4.9808,-45.8044,
7.6080,-0.0112,0.0208,1.0221,0.0080,0.0106,0.0021,0.0036,-0.0061,-0.0044,16.2730,4.9860,-45.8073,
7.6200,-0.0111,0.0210,1.0224,0.0080,0.0106,0.0021,0.0036,-0.0061,-0.0044,16.2730,4.9860,-45.8073,
7.6210,-0.0111,0.0210,1.0224,-0.0417,0.0174,-0.0124,0.0036,-0.0061,-0.0044,16.2730,4.9860,-45.8073,
7.6440,-0.0111,0.0210,1.0224,-0.0417,0.0174,-0.0124,0.0006,-0.0119,-0.0013,16.2730,4.9860,-45.8073,
7.6460,-0.0097,0.0201,1.0224,-0.0417,0.0174,-0.0124,0.0006,-0.0119,-0.0013,16.2730,4.9860,-45.8073,
7.6640,-0.0071,0.0193,1.0170,-0.0417,0.0174,-0.0124,0.0006,-0.0119,-0.0013,16.2730,4.9860,-45.8073,
7.6650,-0.0071,0.0193,1.0170,-0.0417,0.0174,-0.0124,0.0006,-0.0119,-0.0013,16.2705,4.9888,-45.8421,
7.6800,-0.0071,0.0193,1.0170,-0.0417,0.0174,-0.0124,-0.0018,-0.0070,0.0005,16.2705,4.9888,-45.8421,
7.6820,-0.0060,0.0202,1.0205,-0.0417,0.0174,-0.0124,-0.0018,-0.0070,0.0005,16.2705,4.9888,-45.8421,
7.6820,-0.0060,0.0202,1.0205,-0.0421,0.0206,0.0084,-0.0018,-0.0070,0.0005,16.2705,4.9888,-45.8421,
7.7100,-0.0064,0.0174,1.0235,-0.0421,0.0206,0.0084,-0.0018,-0.0070,0.0005,16.2705,4.9888,-45.8421,
7.7450,-0.0027,0.0174,1.0222,-0.0421,0.0206,0.0084,-0.0018,-0.0070,0.0005,16.2705,4.9888,-45.8421,
7.7470,-0.0027,0.0174,1.0222,-0.0421,0.0206,0.0084,-0.0073,-0.0122,-0.0029,16.2705,4.9888,-45.8421,
7.7480,-0.0034,0.0203,1.0223,-0.0421,0.0206,0.0084,-0.0073,-0.0122,-0.0029,16.2705,4.9888,-45.8421,
7.7480,-0.0034,0.0203,1.0223,-0.0421,0.0206,0.0084,-0.0073,-0.0122,-0.0029,16.2508,5.0158,-45.8331,
7.7580,-0.0079,0.0187,1.0246,-0.0421,0.0206,0.0084,-0.0073,-0.0122,-0.0029,16.2508,5.0158,-45.8331,
7.7590,-0.0079,0.0187,1.0246,-0.0080,0.0170,-0.0111,-0.0073,-0.0122,-0.0029,16.2508,5.0158,-45.8331,
7.7600,-0.0079,0.0187,1.0246,-0.0080,0.0170,-0.0111,0.0064,0.0135,-0.0020,16.2508,5.0158,-45.8331,
7.7770,-0.0147,0.0151,1.0252,-0.0080,0.0170,-0.0111,0.0064,0.0135,-0.0020,16.2508,5.0158,-45.8331,
7.8050,-0.0121,0.0197,1.0075,-0.0080,0.0170,-0.0111,0.0064,0.0135,-0.0020,16.2508,5.0158,-45.8331,
7.8070,-0.0121,0.0197,1.0075,-0.0080,0.0170,-0.0111,0.0165,-0.0174,-0.0053,16.2508,5.0158,-45.8331,
7.8080,-0.0121,0.0197,1.0075,-0.0080,0.0170,-0.0111,0.0165,-0.0174,-0.0053,16.2620,5.0186,-45.8241,
7.8170,-0.0108,0.0252,1.0236,-0.0080,0.0170,-0.0111,0.0165,-0.0174,-0.0053,16.2620,5.0186,-45.8241,
7.8170,-0.0108,0.0252,1.0236,0.0088,0.0089,0.0144,0.0165,-0.0174,-0.0053,16.2620,5.0186,-45.8241,
7.8440,-0.0125,0.0206,1.0253,0.0088,0.0089,0.0144,0.0165,-0.0174,-0.0053,16.2620,5.0186,-45.8241,
7.8450,-0.0125,0.0206,1.0253,0.0088,0.0089,0.0144,-0.0312,-0.0079,0.0035,16.2620,5.0186,-45.8241,
7.8640,-0.0095,0.0147,1.0278,0.0088,0.0089,0.0144,-0.0312,-0.0079,0.0035,16.2620,5.0186,-45.8241,
7.8660,-0.0095,0.0147,1.0278,0.0088,0.0089,0.0144,-0.0312,-0.0079,0.0035,16.2623,5.0316,-45.8125,
7.8960,-0.0095,0.0147,1.0278,-0.0754,0.0277,-0.0235,-0.0312,-0.0079,0.0035,16.2623,5.0316,-45.8125,
7.8990,-0.0095,0.0147,1.0278,-0.0754,0.0277,-0.0235,-0.0040,-0.0360,-0.0007,16.2623,5.0316,-45.8125,
7.9000,-0.0039,0.0182,1.0252,-0.0754,0.0277,-0.0235,-0.0040,-0.0360,-0.0007,16.2623,5.0316,-45.8125,
7.9010,0.0022,0.0192,1.0236,-0.0754,0.0277,-0.0235,-0.0040,-0.0360,-0.0007,16.2623,5.0316,-45.8125,
7.9180,0.0045,0.0171,1.0257,-0.0754,0.0277,-0.0235,-0.0040,-0.0360,-0.0007,16.2623,5.0316,-45.8125,
7.9200,0.0045,0.0171,1.0257,-0.0754,0.0277,-0.0235,-0.0034,-0.0082,-0.0007,16.2623,5.0316,-45.8125,
7.9440,-0.0028,0.0171,1.0242,-0.0754,0.0277,-0.0235,-0.0034,-0.0082,-0.0007,16.2623,5.0316,-45.8125,
7.9450,-0.0028,0.0171,1.0242,-0.0754,0.0277,-0.0235,-0.0034,-0.0082,-0.0007,16.2274,5.0579,-45.7995,
7.9560,-0.0099,0.0208,1.0219,-0.0754,0.0277,-0.0235,-0.0034,-0.0082,-0.0007,16.2274,5.0579,-45.7995,
7.9570,-0.0099,0.0208,1.0219,-0.0754,0.0277,-0.0235,-0.0009,-0.0036,0.0008,16.2274,5.0579,-45.7995,
7.9580,-0.0099,0.0208,1.0219,-0.0051,0.0006,0.0417,-0.0009,-0.0036,0.0008,16.2274,5.0579,-45.7995,
7.9770,-0.0130,0.0242,1.0234,-0.0051,0.0006,0.0417,-0.0009,-0.0036,0.0008,16.2274,5.0579,-45.7995,
8.0050,-0.0095,0.0219,1.0229,-0.0051,0.0006,0.0417,-0.0009,-0.0036,0.0008,16.2274,5.0579,-45.7995,
8.0060,-0.0095,0.0219,1.0229,-0.0051,0.0006,0.0417,-0.0092,-0.0189,0.0017,16.2274,5.0579,-45.7995,
8.0070,-0.0095,0.0219,1.0229,-0.0051,0.0006,0.0417,-0.0092,-0.0189,0.0017,16.2391,5.0673,-45.7954,
8.0330,-0.0095,0.0219,1.0229,-0.0072,0.0216,0.0144,-0.0092,-0.0189,0.0017,16.2391,5.0673,-45.7954,
8.0350,-0.0049,0.0173,1.0252,-0.0072,0.0216,0.0144,-0.0092,-0.0189,0.0017,16.2391,5.0673,-45.7954,
8.0370,-0.0054,0.0168,1.0240,-0.0072,0.0216,0.0144,-0.0092,-0.0189,0.0017,16.2391,5.0673,-45.7954,
8.0370,-0.0054,0.0168,1.0240,-0.0072,0.0216,0.0144,-0.0107,-0.0134,0.0005,16.2391,5.0673,-45.7954,
8.0650,-0.0057,0.0175,1.0183,-0.0072,0.0216,0.0144,-0.0107,-0.0134,0.0005,16.2391,5.0673,-45.7954,
8.0670,-0.0057,0.0175,1.0183,-0.0072,0.0216,0.0144,-0.0107,-0.0134,0.0005,16.2108,5.1006,-45.8057,
8.0910,-0.0057,0.0175,1.0183,-0.0330,0.0257,0.0176,-0.0107,-0.0134,0.0005,16.2108,5.1006,-45.8057,
8.0930,-0.0042,0.0203,1.0317,-0.0330,0.0257,0.0176,-0.0107,-0.0134,0.0005,16.2108,5.1006,-45.8057,
8.0930,-0.0042,0.0203,1.0317,-0.0330,0.0257,0.0176,-0.0113,-0.0048,0.0005,16.2108,5.1006,-45.8057,
8.0940,-0.0043,0.0187,1.0062,-0.0330,0.0257,0.0176,-0.0113,-0.0048,0.0005,16.2108,5.1006,-45.8057,
8.1100,-0.0043,0.0187,1.0062,-0.0330,0.0257,0.0176,-0.0006,0.0074,0.0011,16.2108,5.1006,-45.8057,
8.1110,-0.0081,0.0154,1.0371,-0.0330,0.0257,0.0176,-0.0006,0.0074,0.0011,16.2108,5.1006,-45.8057,
8.1440,-0.0027,0.0179,1.0229,-0.0330,0.0257,0.0176,-0.0006,0.0074,0.0011,16.2108,5.1006,-45.8057,
8.1450,-0.0027,0.0179,1.0229,-0.0330,0.0257,0.0176,-0.0006,0.0074,0.0011,16.1959,5.1051,-45.8227,
8.1690,-0.0039,0.0196,1.0250,-0.0330,0.0257,0.0176,-0.0006,0.0074,0.0011,16.1959,5.1051,-45.8227,
8.1700,-0.0039,0.0196,1.0250,-0.0330,0.0257,0.0176,0.0040,-0.0085,-0.0007,16.1959,5.1051,-45.8227,
8.1710,-0.0039,0.0196,1.0250,-0.0176,0.0114,-0.0029,0.0040,-0.0085,-0.0007,16.1959,5.1051,-45.8227,
8.1720,0.0021,0.0181,1.0304,-0.0176,0.0114,-0.0029,0.0040,-0.0085,-0.0007,16.1959,5.1051,-45.8227,
8.2040,0.0033,0.0147,1.0255,-0.0176,0.0114,-0.0029,0.0040,-0.0085,-0.0007,16.1959,5.1051,-45.8227,
8.2050,0.0033,0.0147,1.0255,-0.0176,0.0114,-0.0029,0.0015,-0.0006,0.0039,16.1959,5.1051,-45.8227,
8.2060,0.0033,0.0147,1.0255,-0.0176,0.0114,-0.0029,0.0015,-0.0006,0.0039,16.1546,5.1225,-45.8001,
8.2260,0.0033,0.0147,1.0255,-0.0176,0.0114,-0.0029,-0.0141,-0.0015,0.0026,16.1546,5.1225,-45.8001,
8.2270,-0.0028,0.0179,1.0253,-0.0176,0.0114,-0.0029,-0.0141,-0.0015,0.0026,16.1546,5.1225,-45.8001,
8.2270,-0.0082,0.0206,1.0236,-0.0176,0.0114,-0.0029,-0.0141,-0.0015,0.0026,16.1546,5.1225,-45.8001,
8.2280,-0.0082,0.0206,1.0236,0.0137,0.0142,0.0396,-0.0141,-0.0015,0.0026,16.1546,5.1225,-45.8001,
8.2640,-0.0075,0.0209,1.0266,0.0137,0.0142,0.0396,-0.0141,-0.0015,0.0026,16.1546,5.1225,-45.8001,
8.2650,-0.0075,0.0209,1.0266,0.0137,0.0142,0.0396,-0.0141,-0.0015,0.0026,16.0982,5.1154,-45.8219,
8.3040,-0.0072,0.0187,1.0233,0.0137,0.0142,0.0396,-0.0141,-0.0015,0.0026,16.0982,5.1154,-45.8219,
8.3050,-0.0072,0.0187,1.0233,0.0137,0.0142,0.0396,-0.0070,0.0019,0.0008,16.0982,5.1154,-45.8219,
8.3060,-0.0072,0.0187,1.0233,0.0137,0.0142,0.0396,0.0052,-0.0045,-0.0023,16.0982,5.1154,-45.8219,
8.3060,-0.0100,0.0182,1.0261,0.0137,0.0142,0.0396,0.0052,-0.0045,-0.0023,16.0982,5.1154,-45.8219,
8.3060,-0.0089,0.0180,1.0249,0.0137,0.0142,0.0396,0.0052,-0.0045,-0.0023,16.0982,5.1154,-45.8219,
8.3070,-0.0089,0.0180,1.0249,0.0007,0.0128,0.0194,0.0052,-0.0045,-0.0023,16.0982,5.1154,-45.8219,
8.3430,-0.0088,0.0184,1.0239,0.0007,0.0128,0.0194,0.0052,-0.0045,-0.0023,16.0982,5.1154,-45.8219,
8.3450,-0.0088,0.0184,1.0239,0.0007,0.0128,0.0194,0.0040,-0.0015,0.0005,16.0982,5.1154,-45.8219,
8.3450,-0.0081,0.0208,1.0256,0.0007,0.0128,0.0194,0.0040,-0.0015,0.0005,16.0982,5.1154,-45.8219,
8.3460,-0.0081,0.0208,1.0256,0.0007,0.0128,0.0194,0.0040,-0.0015,0.0005,16.0441,5.1179,-45.8240,
8.3620,-0.0056,0.0202,1.0261,0.0007,0.0128,0.0194,0.0040,-0.0015,0.0005,16.0441,5.1179,-45.8240,
8.3630,-0.0056,0.0202,1.0261,-0.0459,0.0142,0.0160,0.0040,-0.0015,0.0005,16.0441,5.1179,-45.8240,
8.4040,-0.0056,0.0202,1.0261,-0.0459,0.0142,0.0160,0.0003,-0.0097,0.0023,16.0441,5.1179,-45.8240,
8.4050,-0.0031,0.0203,1.0258,-0.0459,0.0142,0.0160,0.0003,-0.0097,0.0023,16.0441,5.1179,-45.8240,
8.4060,-0.0016,0.0175,1.0230,-0.0459,0.0142,0.0160,0.0003,-0.0097,0.0023,16.0441,5.1179,-45.8240,
8.4070,-0.0016,0.0175,1.0230,-0.0459,0.0142,0.0160,0.0003,-0.0097,0.0023,15.9631,5.1211,-45.8282,
8.4410,-0.0016,0.0175,1.0230,-0.0459,0.0142,0.0160,0.0006,-0.0027,0.0002,15.9631,5.1211,-45.8282,
8.4420,-0.0037,0.0166,1.0230,-0.0459,0.0142,0.0160,0.0006,-0.0027,0.0002,15.9631,5.1211,-45.8282,
8.4430,-0.0056,0.0184,1.0277,-0.0459,0.0142,0.0160,0.0006,-0.0027,0.0002,15.9631,5.1211,-45.8282,
8.4430,-0.0056,0.0184,1.0277,-0.0304,0.0229,0.0173,0.0006,-0.0027,0.0002,15.9631,5.1211,-45.8282,
8.4640,-0.0056,0.0184,1.0277,-0.0304,0.0229,0.0173,0.0006,-0.0045,-0.0001,15.9631,5.1211,-45.8282,
8.4650,-0.0045,0.0190,1.0278,-0.0304,0.0229,0.0173,0.0006,-0.0045,-0.0001,15.9631,5.1211,-45.8282,
8.4660,-0.0045,0.0190,1.0278,-0.0304,0.0229,0.0173,0.0006,-0.0045,-0.0001,15.9359,5.1088,-45.8350,
8.5000,-0.0045,0.0190,1.0278,0.0078,0.0012,0.0102,0.0006,-0.0045,-0.0001,15.9359,5.1088,-45.8350,
8.5020,-0.0045,0.0190,1.0278,0.0078,0.0012,0.0102,-0.0055,0.0126,0.0035,15.9359,5.1088,-45.8350,
8.5020,-0.0021,0.0207,1.0229,0.0078,0.0012,0.0102,-0.0055,0.0126,0.0035,15.9359,5.1088,-45.8350,
8.5030,-0.0045,0.0207,1.0295,0.0078,0.0012,0.0102,-0.0055,0.0126,0.0035,15.9359,5.1088,-45.8350,
8.5440,-0.0110,0.0164,1.0174,0.0078,0.0012,0.0102,-0.0055,0.0126,0.0035,15.9359,5.1088,-45.8350,
8.5460,-0.0110,0.0164,1.0174,0.0078,0.0012,0.0102,0.0293,-0.0015,-0.0007,15.9359,5.1088,-45.8350,
8.5460,-0.0145,0.0154,1.0191,0.0078,0.0012,0.0102,0.0293,-0.0015,-0.0007,15.9359,5.1088,-45.8350,
8.5470,-0.0145,0.0154,1.0191,0.0078,0.0012,0.0102,0.0293,-0.0015,-0.0007,15.9215,5.1069,-45.8796,
8.5780,-0.0145,0.0154,1.0191,-0.0057,0.0213,0.0084,0.0293,-0.0015,-0.0007,15.9215,5.1069,-45.8796,
8.5790,-0.0112,0.0223,1.0249,-0.0057,0.0213,0.0084,0.0293,-0.0015,-0.0007,15.9215,5.1069,-45.8796,
8.5800,-0.0098,0.0228,1.0252,-0.0057,0.0213,0.0084,0.0293,-0.0015,-0.0007,15.9215,5.1069,-45.8796,
8.5810,-0.0098,0.0228,1.0252,-0.0057,0.0213,0.0084,-0.0281,-0.0064,0.0020,15.9215,5.1069,-45.8796,
8.6050,-0.0068,0.0154,1.0291,-0.0057,0.0213,0.0084,-0.0281,-0.0064,0.0020,15.9215,5.1069,-45.8796,
8.6060,-0.0068,0.0154,1.0291,-0.0057,0.0213,0.0084,-0.0281,-0.0064,0.0020,15.9635,5.0977,-45.9111,
8.6360,-0.0004,0.0176,1.0267,-0.0057,0.0213,0.0084,-0.0281,-0.0064,0.0020,15.9635,5.0977,-45.9111,
8.6370,-0.0004,0.0176,1.0267,-0.0057,0.0213,0.0084,-0.0064,-0.0296,0.0011,15.9635,5.0977,-45.9111,
8.6380,0.0019,0.0209,1.0268,-0.0057,0.0213,0.0084,-0.0064,-0.0296,0.0011,15.9635,5.0977,-45.9111,
8.6380,0.0019,0.0209,1.0268,-0.0812,0.0157,-0.0068,-0.0064,-0.0296,0.0011,15.9635,5.0977,-45.9111,
8.6680,0.0019,0.0209,1.0268,-0.0812,0.0157,-0.0068,0.0024,0.0031,0.0032,15.9635,5.0977,-45.9111,
8.6690,0.0030,0.0186,1.0240,-0.0812,0.0157,-0.0068,0.0024,0.0031,0.0032,15.9635,5.0977,-45.9111,
8.6700,0.0030,0.0186,1.0240,-0.0812,0.0157,-0.0068,0.0024,0.0031,0.0032,15.9985,4.9953,-46.0760,
8.7100,-0.0029,0.0165,1.0245,-0.0812,0.0157,-0.0068,0.0024,0.0031,0.0032,15.9985,4.9953,-46.0760,
8.7110,-0.0029,0.0165,1.0245,-0.0812,0.0157,-0.0068,-0.0000,-0.0018,0.0045,15.9985,4.9953,-46.0760,
8.7120,-0.0082,0.0198,1.0263,-0.0812,0.0157,-0.0068,-0.0000,-0.0018,0.0045,15.9985,4.9953,-46.0760,
8.7140,-0.0082,0.0198,1.0263,0.0232,0.0049,0.0301,-0.0000,-0.0018,0.0045,15.9985,4.9953,-46.0760,
8.7150,-0.0097,0.0252,1.0218,0.0232,0.0049,0.0301,-0.0000,-0.0018,0.0045,15.9985,4.9953,-46.0760,
8.7440,-0.0106,0.0235,1.0177,0.0232,0.0049,0.0301,-0.0000,-0.0018,0.0045,15.9985,4.9953,-46.0760,
8.7440,-0.0106,0.0235,1.0177,0.0232,0.0049,0.0301,-0.0034,-0.0079,0.0051,15.9985,4.9953,-46.0760,
8.7450,-0.0106,0.0235,1.0177,0.0232,0.0049,0.0301,-0.0034,-0.0079,0.0051,16.0012,4.9753,-46.0825,
8.7730,-0.0089,0.0196,1.0232,0.0232,0.0049,0.0301,-0.0034,-0.0079,0.0051,16.0012,4.9753,-46.0825,
8.7740,-0.0089,0.0196,1.0232,0.0232,0.0049,0.0301,-0.0092,-0.0094,0.0032,16.0012,4.9753,-46.0825,
8.7740,-0.0092,0.0154,1.0246,0.0232,0.0049,0.0301,-0.0092,-0.0094,0.0032,16.0012,4.9753,-46.0825,
8.7750,-0.0092,0.0154,1.0246,-0.0259,0.0245,-0.0004,-0.0092,-0.0094,0.0032,16.0012,4.9753,-46.0825,
8.8040,-0.0072,0.0176,1.0227,-0.0259,0.0245,-0.0004,-0.0092,-0.0094,0.0032,16.0012,4.9753,-46.0825,
8.8060,-0.0072,0.0176,1.0227,-0.0259,0.0245,-0.0004,-0.0092,-0.0094,0.0032,15.9965,4.9621,-46.0928,
8.8440,-0.0038,0.0201,1.0255,-0.0259,0.0245,-0.0004,-0.0092,-0.0094,0.0032,15.9965,4.9621,-46.0928,
8.8450,-0.0018,0.0204,1.0156,-0.0259,0.0245,-0.0004,-0.0092,-0.0094,0.0032,15.9965,4.9621,-46.0928,
8.8460,-0.0018,0.0204,1.0156,-0.0259,0.0245,-0.0004,-0.0113,-0.0070,0.0029,15.9965,4.9621,-46.0928,
8.8520,-0.0114,0.0144,1.0230,-0.0259,0.0245,-0.0004,-0.0113,-0.0070,0.0029,15.9965,4.9621,-46.0928,
8.8520,-0.0114,0.0144,1.0230,-0.0509,0.0191,-0.0156,-0.0113,-0.0070,0.0029,15.9965,4.9621,-46.0928,
8.8530,-0.0114,0.0144,1.0230,-0.0509,0.0191,-0.0156,-0.0046,0.0193,0.0042,15.9965,4.9621,-46.0928,
8.8640,-0.0114,0.0144,1.0230,-0.0509,0.0191,-0.0156,-0.0046,0.0193,0.0042,15.9478,4.9623,-46.1073,
8.9100,-0.0114,0.0144,1.0230,-0.0242,0.0125,-0.0240,-0.0046,0.0193,0.0042,15.9478,4.9623,-46.1073,
8.9120,-0.0114,0.0144,1.0230,-0.0242,0.0125,-0.0240,-0.0049,-0.0235,0.0008,15.9478,4.9623,-46.1073,
8.9120,-0.0072,0.0147,1.0225,-0.0242,0.0125,-0.0240,-0.0049,-0.0235,0.0008,15.9478,4.9623,-46.1073,
8.9130,-0.0029,0.0192,1.0211,-0.0242,0.0125,-0.0240,-0.0049,-0.0235,0.0008,15.9478,4.9623,-46.1073,
8.9130,0.0015,0.0195,1.0225,-0.0242,0.0125,-0.0240,-0.0049,-0.0235,0.0008,15.9478,4.9623,-46.1073,
8.9440,0.0015,0.0195,1.0225,-0.0242,0.0125,-0.0240,-0.0058,-0.0082,0.0051,15.9478,4.9623,-46.1073,
8.9450,0.0026,0.0168,1.0214,-0.0242,0.0125,-0.0240,-0.0058,-0.0082,0.0051,15.9478,4.9623,-46.1073,
8.9450,0.0026,0.0168,1.0214,-0.0242,0.0125,-0.0240,-0.0058,-0.0082,0.0051,15.9279,4.9583,-46.1238,
8.9770,-0.0040,0.0180,1.0230,-0.0242,0.0125,-0.0240,-0.0058,-0.0082,0.0051,15.9279,4.9583,-46.1238,
8.9770,-0.0055,0.0206,1.0205,-0.0242,0.0125,-0.0240,-0.0058,-0.0082,0.0051,15.9279,4.9583,-46.1238,
8.9780,-0.0055,0.0206,1.0205,-0.0242,0.0125,-0.0240,-0.0086,-0.0082,0.0054,15.9279,4.9583,-46.1238,
8.9880,-0.0055,0.0206,1.0205,0.0094,0.0109,-0.0117,-0.0086,-0.0082,0.0054,15.9279,4.9583,-46.1238,
8.9880,-0.0049,0.0209,1.0183,0.0094,0.0109,-0.0117,-0.0086,-0.0082,0.0054,15.9279,4.9583,-46.1238,
9.0040,-0.0049,0.0209,1.0183,0.0094,0.0109,-0.0117,-0.0086,-0.0082,0.0054,15.9387,4.9623,-46.1347,
9.0440,-0.0049,0.0209,1.0183,0.0094,0.0109,-0.0117,-0.0064,0.0040,0.0054,15.9387,4.9623,-46.1347,
9.0450,-0.0092,0.0186,1.0239,0.0094,0.0109,-0.0117,-0.0064,0.0040,0.0054,15.9387,4.9623,-46.1347,
9.0460,-0.0115,0.0182,1.0234,0.0094,0.0109,-0.0117,-0.0064,0.0040,0.0054,15.9387,4.9623,-46.1347,
9.0470,-0.0108,0.0197,1.0223,0.0094,0.0109,-0.0117,-0.0064,0.0040,0.0054,15.9387,4.9623,-46.1347,
9.0470,-0.0108,0.0197,1.0223,0.0094,0.0109,-0.0117,-0.0003,-0.0018,-0.0004,15.9387,4.9623,-46.1347,
9.0480,-0.0108,0.0197,1.0223,-0.0102,0.0246,-0.0268,-0.0003,-0.0018,-0.0004,15.9387,4.9623,-46.1347,
9.0630,-0.0108,0.0197,1.0223,-0.0102,0.0246,-0.0268,-0.0003,-0.0018,-0.0004,15.9161,4.9535,-46.1157,
9.1100,-0.0100,0.0188,1.0218,-0.0102,0.0246,-0.0268,-0.0003,-0.0018,-0.0004,15.9161,4.9535,-46.1157,
9.1120,-0.0097,0.0184,1.0205,-0.0102,0.0246,-0.0268,-0.0003,-0.0018,-0.0004,15.9161,4.9535,-46.1157,
9.1130,-0.0061,0.0188,1.0189,-0.0102,0.0246,-0.0268,-0.0003,-0.0018,-0.0004,15.9161,4.9535,-46.1157,
9.1140,-0.0061,0.0188,1.0189,-0.0102,0.0246,-0.0268,0.0055,-0.0067,-0.0013,15.9161,4.9535,-46.1157,
9.1250,-0.0061,0.0188,1.0189,-0.0687,0.0147,-0.0013,0.0055,-0.0067,-0.0013,15.9161,4.9535,-46.1157,
9.1270,-0.0061,0.0188,1.0189,-0.0687,0.0147,-0.0013,0.0049,-0.0054,-0.0001,15.9161,4.9535,-46.1157,
9.1280,-0.0032,0.0197,1.0232,-0.0687,0.0147,-0.0013,0.0049,-0.0054,-0.0001,15.9161,4.9535,-46.1157,
9.1450,-0.0032,0.0197,1.0232,-0.0687,0.0147,-0.0013,0.0049,-0.0054,-0.0001,15.8586,4.9418,-46.1214,
9.1460,-0.0012,0.0188,1.0242,-0.0687,0.0147,-0.0013,0.0049,-0.0054,-0.0001,15.8586,4.9418,-46.1214,
9.1780,0.0024,0.0198,1.0227,-0.0687,0.0147,-0.0013,0.0049,-0.0054,-0.0001,15.8586,4.9418,-46.1214,
9.1800,0.0024,0.0198,1.0227,-0.0687,0.0147,-0.0013,-0.0012,-0.0002,0.0008,15.8586,4.9418,-46.1214,
9.1830,0.0024,0.0198,1.0227,-0.0249,0.0172,-0.0185,-0.0012,-0.0002,0.0008,15.8586,4.9418,-46.1214,
9.1840,-0.0001,0.0210,1.0267,-0.0249,0.0172,-0.0185,-0.0012,-0.0002,0.0008,15.8586,4.9418,-46.1214,
9.2050,-0.0001,0.0210,1.0267,-0.0249,0.0172,-0.0185,-0.0012,-0.0002,0.0008,15.8541,5.0490,-45.9330,
9.2060,-0.0001,0.0210,1.0267,-0.0249,0.0172,-0.0185,-0.0064,0.0175,0.0026,15.8541,5.0490,-45.9330,
9.2060,-0.0057,0.0182,1.0296,-0.0249,0.0172,-0.0185,-0.0064,0.0175,0.0026,15.8541,5.0490,-45.9330,
9.2450,-0.0057,0.0182,1.0296,-0.0249,0.0172,-0.0185,0.0263,-0.0158,-0.0010,15.8541,5.0490,-45.9330,
9.2460,-0.0130,0.0148,1.0170,-0.0249,0.0172,-0.0185,0.0263,-0.0158,-0.0010,15.8541,5.0490,-45.9330,
9.2470,-0.0142,0.0164,1.0124,-0.0249,0.0172,-0.0185,0.0263,-0.0158,-0.0010,15.8541,5.0490,-45.9330,
9.2620,-0.0142,0.0164,1.0124,0.0297,0.0202,0.0215,0.0263,-0.0158,-0.0010,15.8541,5.0490,-45.9330,
9.2630,-0.0086,0.0237,1.0192,0.0297,0.0202,0.0215,0.0263,-0.0158,-0.0010,15.8541,5.0490,-45.9330,
9.2640,-0.0086,0.0237,1.0192,0.0297,0.0202,0.0215,0.0263,-0.0158,-0.0010,15.8859,5.0480,-45.9397,
9.3110,-0.0086,0.0237,1.0192,0.0297,0.0202,0.0215,-0.0358,-0.0140,0.0026,15.8859,5.0480,-45.9397,
9.3120,-0.0079,0.0213,1.0319,0.0297,0.0202,0.0215,-0.0358,-0.0140,0.0026,15.8859,5.0480,-45.9397,
9.3130,-0.0034,0.0165,1.0268,0.0297,0.0202,0.0215,-0.0358,-0.0140,0.0026,15.8859,5.0480,-45.9397,
9.3200,0.0016,0.0168,1.0246,0.0297,0.0202,0.0215,-0.0358,-0.0140,0.0026,15.8859,5.0480,-45.9397,
9.3210,0.0016,0.0168,1.0246,0.0297,0.0202,0.0215,-0.0000,-0.0378,-0.0001,15.8859,5.0480,-45.9397,
9.3220,0.0016,0.0168,1.0246,-0.0886,0.0087,-0.0445,-0.0000,-0.0378,-0.0001,15.8859,5.0480,-45.9397,
9.3460,0.0016,0.0168,1.0246,-0.0886,0.0087,-0.0445,-0.0000,-0.0378,-0.0001,15.9194,5.0595,-45.9092,
9.3480,0.0016,0.0191,1.0210,-0.0886,0.0087,-0.0445,-0.0000,-0.0378,-0.0001,15.9194,5.0595,-45.9092,
9.3790,0.0021,0.0171,1.0219,-0.0886,0.0087,-0.0445,-0.0000,-0.0378,-0.0001,15.9194,5.0595,-45.9092,
9.3810,-0.0023,0.0163,1.0275,-0.0886,0.0087,-0.0445,-0.0000,-0.0378,-0.0001,15.9194,5.0595,-45.9092,
9.3820,-0.0023,0.0163,1.0275,-0.0886,0.0087,-0.0445,0.0043,0.0004,0.0045,15.9194,5.0595,-45.9092,
9.3980,-0.0023,0.0163,1.0275,-0.0886,0.0087,-0.0445,0.0043,-0.0033,0.0032,15.9194,5.0595,-45.9092,
9.3990,-0.0067,0.0203,1.0238,-0.0886,0.0087,-0.0445,0.0043,-0.0033,0.0032,15.9194,5.0595,-45.9092,
9.4000,-0.0067,0.0203,1.0238,-0.0025,0.0061,0.0374,0.0043,-0.0033,0.0032,15.9194,5.0595,-45.9092,
9.4040,-0.0067,0.0203,1.0238,-0.0025,0.0061,0.0374,0.0043,-0.0033,0.0032,15.9563,5.0526,-45.8980,
9.4190,-0.0083,0.0237,1.0196,-0.0025,0.0061,0.0374,0.0043,-0.0033,0.0032,15.9563,5.0526,-45.8980,
9.4430,-0.0089,0.0223,1.0224,-0.0025,0.0061,0.0374,0.0043,-0.0033,0.0032,15.9563,5.0526,-45.8980,
9.4450,-0.0089,0.0223,1.0224,-0.0025,0.0061,0.0374,0.0036,-0.0073,0.0008,15.9563,5.0526,-45.8980,
9.4570,-0.0087,0.0195,1.0224,-0.0025,0.0061,0.0374,0.0036,-0.0073,0.0008,15.9563,5.0526,-45.8980,
9.4580,-0.0087,0.0195,1.0224,-0.0008,0.0035,0.0068,0.0036,-0.0073,0.0008,15.9563,5.0526,-45.8980,
9.4640,-0.0087,0.0195,1.0224,-0.0008,0.0035,0.0068,0.0036,-0.0073,0.0008,16.0091,5.0421,-45.8960,
9.5100,-0.0087,0.0195,1.0224,-0.0008,0.0035,0.0068,-0.0058,-0.0180,0.0002,16.0091,5.0421,-45.8960,
9.5120,-0.0064,0.0179,1.0286,-0.0008,0.0035,0.0068,-0.0058,-0.0180,0.0002,16.0091,5.0421,-45.8960,
9.5120,-0.0021,0.0193,1.0137,-0.0008,0.0035,0.0068,-0.0058,-0.0180,0.0002,16.0091,5.0421,-45.8960,
9.5340,0.0004,0.0217,1.0308,-0.0008,0.0035,0.0068,-0.0058,-0.0180,0.0002,16.0091,5.0421,-45.8960,
9.5360,-0.0029,0.0193,1.0106,-0.0008,0.0035,0.0068,-0.0058,-0.0180,0.0002,16.0091,5.0421,-45.8960,
9.5360,-0.0029,0.0193,1.0106,-0.0008,0.0035,0.0068,-0.0052,-0.0174,0.0017,16.0091,5.0421,-45.8960,
9.5370,-0.0029,0.0193,1.0106,-0.0645,0.0354,-0.0053,-0.0052,-0.0174,0.0017,16.0091,5.0421,-45.8960,
9.5440,-0.0029,0.0193,1.0106,-0.0645,0.0354,-0.0053,-0.0052,-0.0174,0.0017,16.0318,5.0279,-45.8815,
9.5780,-0.0059,0.0168,1.0263,-0.0645,0.0354,-0.0053,-0.0052,-0.0174,0.0017,16.0318,5.0279,-45.8815,
9.5790,-0.0024,0.0177,1.0235,-0.0645,0.0354,-0.0053,-0.0052,-0.0174,0.0017,16.0318,5.0279,-45.8815,
9.5790,-0.0024,0.0177,1.0235,-0.0645,0.0354,-0.0053,-0.0058,0.0083,0.0035,16.0318,5.0279,-45.8815,
9.5930,-0.0024,0.0177,1.0235,-0.0645,0.0354,-0.0053,-0.0080,-0.0253,-0.0010,16.0318,5.0279,-45.8815,
9.5940,-0.0024,0.0177,1.0235,-0.0110,0.0210,-0.0288,-0.0080,-0.0253,-0.0010,16.0318,5.0279,-45.8815,
9.5940,0.0007,0.0210,1.0249,-0.0110,0.0210,-0.0288,-0.0080,-0.0253,-0.0010,16.0318,5.0279,-45.8815,
9.6040,0.0007,0.0210,1.0249,-0.0110,0.0210,-0.0288,-0.0080,-0.0253,-0.0010,16.0478,5.0516,-45.8748,
9.6440,0.0035,0.0180,1.0244,-0.0110,0.0210,-0.0288,-0.0080,-0.0253,-0.0010,16.0478,5.0516,-45.8748,
9.6450,0.0035,0.0180,1.0244,-0.0110,0.0210,-0.0288,-0.0080,-0.0015,0.0026,16.0478,5.0516,-45.8748,
9.6460,-0.0000,0.0163,1.0264,-0.0110,0.0210,-0.0288,-0.0080,-0.0015,0.0026,16.0478,5.0516,-45.8748,
9.6630,-0.0028,0.0195,1.0264,-0.0110,0.0210,-0.0288,-0.0080,-0.0015,0.0026,16.0478,5.0516,-45.8748,
9.6650,-0.0028,0.0195,1.0264,-0.0110,0.0210,-0.0288,-0.0080,-0.0015,0.0026,16.0780,5.0572,-45.8669,
9.6700,-0.0038,0.0215,1.0232,-0.0110,0.0210,-0.0288,-0.0080,-0.0015,0.0026,16.0780,5.0572,-45.8669,
9.6710,-0.0038,0.0215,1.0232,-0.0110,0.0210,-0.0288,-0.0061,-0.0061,0.0026,16.0780,5.0572,-45.8669,
9.6720,-0.0038,0.0215,1.0232,-0.0078,0.0140,0.0202,-0.0061,-0.0061,0.0026,16.0780,5.0572,-45.8669,
9.7100,-0.0068,0.0196,1.0245,-0.0078,0.0140,0.0202,-0.0061,-0.0061,0.0026,16.0780,5.0572,-45.8669,
9.7110,-0.0078,0.0201,1.0249,-0.0078,0.0140,0.0202,-0.0061,-0.0061,0.0026,16.0780,5.0572,-45.8669,
9.7120,-0.0078,0.0201,1.0249,-0.0078,0.0140,0.0202,-0.0055,-0.0012,0.0026,16.0780,5.0572,-45.8669,
9.7290,-0.0078,0.0201,1.0249,-0.0096,0.0141,0.0170,-0.0055,-0.0012,0.0026,16.0780,5.0572,-45.8669,
9.7300,-0.0075,0.0192,1.0258,-0.0096,0.0141,0.0170,-0.0055,-0.0012,0.0026,16.0780,5.0572,-45.8669,
9.7440,-0.0075,0.0192,1.0258,-0.0096,0.0141,0.0170,-0.0055,-0.0012,0.0026,16.0880,5.0494,-45.8952,
9.7760,-0.0046,0.0187,1.0227,-0.0096,0.0141,0.0170,-0.0055,-0.0012,0.0026,16.0880,5.0494,-45.8952,
9.7770,-0.0046,0.0187,1.0227,-0.0096,0.0141,0.0170,0.0021,-0.0115,-0.0013,16.0880,5.0494,-45.8952,
9.7780,-0.0054,0.0182,1.0195,-0.0096,0.0141,0.0170,0.0021,-0.0115,-0.0013,16.0880,5.0494,-45.8952,
9.8040,-0.0054,0.0182,1.0195,-0.0096,0.0141,0.0170,0.0076,-0.0027,-0.0010,16.0880,5.0494,-45.8952,
9.8050,-0.0046,0.0196,1.0252,-0.0096,0.0141,0.0170,0.0076,-0.0027,-0.0010,16.0880,5.0494,-45.8952,
9.8060,-0.0046,0.0196,1.0252,-0.0096,0.0141,0.0170,0.0076,-0.0027,-0.0010,16.0460,5.0491,-45.9287,
9.8060,-0.0028,0.0218,1.0282,-0.0096,0.0141,0.0170,0.0076,-0.0027,-0.0010,16.0460,5.0491,-45.9287,
9.8070,-0.0028,0.0218,1.0282,-0.0587,0.0161,0.0119,0.0076,-0.0027,-0.0010,16.0460,5.0491,-45.9287,
9.8440,0.0012,0.0198,1.0300,-0.0587,0.0161,0.0119,0.0076,-0.0027,-0.0010,16.0460,5.0491,-45.9287,
9.8450,0.0012,0.0198,1.0300,-0.0587,0.0161,0.0119,0.0024,-0.0024,-0.0004,16.0460,5.0491,-45.9287,
9.8650,0.0012,0.0198,1.0300,-0.0587,0.0161,0.0119,0.0024,-0.0024,-0.0004,16.0240,5.0418,-45.9551,
9.8670,0.0033,0.0204,1.0230,-0.0587,0.0161,0.0119,0.0024,-0.0024,-0.0004,16.0240,5.0418,-45.9551,
9.8680,0.0022,0.0217,1.0293,-0.0587,0.0161,0.0119,0.0024,-0.0024,-0.0004,16.0240,5.0418,-45.9551,
9.8690,0.0022,0.0217,1.0293,-0.0587,0.0161,0.0119,-0.0086,0.0132,0.0035,16.0240,5.0418,-45.9551,
9.8700,0.0022,0.0217,1.0293,-0.0222,0.0179,0.0072,-0.0086,0.0132,0.0035,16.0240,5.0418,-45.9551,
9.9110,-0.0037,0.0197,1.0268,-0.0222,0.0179,0.0072,-0.0086,0.0132,0.0035,16.0240,5.0418,-45.9551,
9.9120,-0.0037,0.0197,1.0268,-0.0222,0.0179,0.0072,0.0302,0.0181,-0.0004,16.0240,5.0418,-45.9551,
9.9130,-0.0117,0.0130,1.0139,-0.0222,0.0179,0.0072,0.0302,0.0181,-0.0004,16.0240,5.0418,-45.9551,
9.9440,-0.0117,0.0130,1.0139,-0.0222,0.0179,0.0072,-0.0205,0.0037,0.0005,16.0240,5.0418,-45.9551,
9.9460,-0.0108,0.0173,1.0085,-0.0222,0.0179,0.0072,-0.0205,0.0037,0.0005,16.0240,5.0418,-45.9551,
9.9470,-0.0044,0.0252,1.0361,-0.0222,0.0179,0.0072,-0.0205,0.0037,0.0005,16.0240,5.0418,-45.9551,
9.9470,-0.0044,0.0252,1.0361,0.0392,0.0199,0.0399,-0.0205,0.0037,0.0005,16.0240,5.0418,-45.9551,
9.9480,-0.0044,0.0252,1.0361,0.0392,0.0199,0.0399,-0.0205,0.0037,0.0005,16.0058,5.0358,-45.9609,
9.9770,-0.0040,0.0220,1.0262,0.0392,0.0199,0.0399,-0.0205,0.0037,0.0005,16.0058,5.0358,-45.9609,
10.0030,0.0013,0.0176,1.0238,0.0392,0.0199,0.0399,-0.0205,0.0037,0.0005,16.0058,5.0358,-45.9609,
10.0040,0.0013,0.0176,1.0238,0.0392,0.0199,0.0399,0.0030,-0.0183,-0.0026,16.0058,5.0358,-45.9609,
10.0050,0.0009,0.0199,1.0217,0.0392,0.0199,0.0399,0.0030,-0.0183,-0.0026,16.0058,5.0358,-45.9609,
10.0050,0.0009,0.0199,1.0217,-0.0616,0.0007,-0.0360,0.0030,-0.0183,-0.0026,16.0058,5.0358,-45.9609,
10.0060,0.0009,0.0199,1.0217,-0.0616,0.0007,-0.0360,0.0030,-0.0183,-0.0026,15.9709,5.0441,-45.9609,
10.0450,-0.0023,0.0187,1.0250,-0.0616,0.0007,-0.0360,0.0030,-0.0183,-0.0026,15.9709,5.0441,-45.9609,
10.0460,-0.0032,0.0177,1.0238,-0.0616,0.0007,-0.0360,0.0030,-0.0183,-0.0026,15.9709,5.0441,-45.9609,
10.0460,-0.0032,0.0177,1.0238,-0.0616,0.0007,-0.0360,0.0015,0.0114,0.0020,15.9709,5.0441,-45.9609,
10.0640,-0.0032,0.0177,1.0238,-0.0616,0.0007,-0.0360,-0.0015,0.0077,0.0014,15.9709,5.0441,-45.9609,
10.0650,-0.0064,0.0213,1.0294,-0.0616,0.0007,-0.0360,-0.0015,0.0077,0.0014,15.9709,5.0441,-45.9609,
10.0660,-0.0064,0.0213,1.0294,-0.0616,0.0007,-0.0360,-0.0015,0.0077,0.0014,15.9464,5.0387,-45.9715,
10.0800,-0.0090,0.0253,1.0279,-0.0616,0.0007,-0.0360,-0.0015,0.0077,0.0014,15.9464,5.0387,-45.9715,
10.0820,-0.0090,0.0253,1.0279,0.0174,0.0110,0.0039,-0.0015,0.0077,0.0014,15.9464,5.0387,-45.9715,
10.1100,-0.0104,0.0228,1.0233,0.0174,0.0110,0.0039,-0.0015,0.0077,0.0014,15.9464,5.0387,-45.9715,
10.1110,-0.0104,0.0228,1.0233,0.0174,0.0110,0.0039,-0.0046,-0.0002,0.0011,15.9464,5.0387,-45.9715,
10.1390,-0.0095,0.0193,1.0224,0.0174,0.0110,0.0039,-0.0046,-0.0002,0.0011,15.9464,5.0387,-45.9715,
10.1410,-0.0086,0.0169,1.0233,0.0174,0.0110,0.0039,-0.0046,-0.0002,0.0011,15.9464,5.0387,-45.9715,
10.1410,-0.0086,0.0169,1.0233,0.0174,0.0110,0.0039,-0.0113,-0.0097,0.0026,15.9464,5.0387,-45.9715,
10.1420,-0.0086,0.0169,1.0233,-0.0293,0.0257,0.0283,-0.0113,-0.0097,0.0026,15.9464,5.0387,-45.9715,
10.1440,-0.0086,0.0169,1.0233,-0.0293,0.0257,0.0283,-0.0113,-0.0097,0.0026,15.9476,5.0115,-45.9863,
10.1770,-0.0054,0.0184,1.0240,-0.0293,0.0257,0.0283,-0.0113,-0.0097,0.0026,15.9476,5.0115,-45.9863,
10.2060,-0.0054,0.0184,1.0240,-0.0293,0.0257,0.0283,-0.0040,-0.0064,0.0017,15.9476,5.0115,-45.9863,
10.2070,-0.0038,0.0219,1.0146,-0.0293,0.0257,0.0283,-0.0040,-0.0064,0.0017,15.9476,5.0115,-45.9863,
10.2080,-0.0001,0.0230,1.0312,-0.0293,0.0257,0.0283,-0.0040,-0.0064,0.0017,15.9476,5.0115,-45.9863,
10.2080,-0.0001,0.0230,1.0312,-0.0293,0.0257,0.0283,-0.0040,-0.0064,0.0017,15.9566,5.0010,-46.0033,
10.2180,-0.0061,0.0173,1.0150,-0.0293,0.0257,0.0283,-0.0040,-0.0064,0.0017,15.9566,5.0010,-46.0033,
10.2190,-0.0061,0.0173,1.0150,-0.0293,0.0257,0.0283,-0.0135,0.0153,0.0032,15.9566,5.0010,-46.0033,
10.2200,-0.0061,0.0173,1.0150,-0.0526,0.0140,-0.0069,-0.0135,0.0153,0.0032,15.9566,5.0010,-46.0033,
10.2440,-0.0065,0.0168,1.0370,-0.0526,0.0140,-0.0069,-0.0135,0.0153,0.0032,15.9566,5.0010,-46.0033,
10.2640,-0.0065,0.0168,1.0370,-0.0526,0.0140,-0.0069,-0.0031,-0.0109,-0.0013,15.9566,5.0010,-46.0033,
10.2650,-0.0055,0.0215,1.0186,-0.0526,0.0140,-0.0069,-0.0031,-0.0109,-0.0013,15.9566,5.0010,-46.0033,
10.2660,-0.0055,0.0215,1.0186,-0.0526,0.0140,-0.0069,-0.0031,-0.0109,-0.0013,15.9578,4.9833,-45.9925,
10.2760,-0.0055,0.0215,1.0186,-0.0008,0.0273,-0.0269,-0.0031,-0.0109,-0.0013,15.9578,4.9833,-45.9925,
10.2770,-0.0037,0.0204,1.0269,-0.0008,0.0273,-0.0269,-0.0031,-0.0109,-0.0013,15.9578,4.9833,-45.9925,
10.3100,-0.0037,0.0204,1.0269,-0.0008,0.0273,-0.0269,-0.0107,0.0049,0.0032,15.9578,4.9833,-45.9925,
10.3110,-0.0005,0.0173,1.0291,-0.0008,0.0273,-0.0269,-0.0107,0.0049,0.0032,15.9578,4.9833,-45.9925,
10.3450,-0.0005,0.0173,1.0291,-0.0008,0.0273,-0.0269,-0.0058,-0.0088,0.0042,15.9578,4.9833,-45.9925,
10.3460,-0.0040,0.0191,1.0223,-0.0008,0.0273,-0.0269,-0.0058,-0.0088,0.0042,15.9578,4.9833,-45.9925,
10.3470,-0.0078,0.0219,1.0225,-0.0008,0.0273,-0.0269,-0.0058,-0.0088,0.0042,15.9578,4.9833,-45.9925,
10.3470,-0.0078,0.0219,1.0225,-0.0008,0.0273,-0.0269,-0.0058,-0.0088,0.0042,16.0085,4.9892,-46.0021,
10.3540,-0.0078,0.0219,1.0225,-0.0126,0.0173,0.0365,-0.0058,-0.0088,0.0042,16.0085,4.9892,-46.0021,
10.3550,-0.0062,0.0213,1.0208,-0.0126,0.0173,0.0365,-0.0058,-0.0088,0.0042,16.0085,4.9892,-46.0021,
10.3770,-0.0095,0.0188,1.0223,-0.0126,0.0173,0.0365,-0.0058,-0.0088,0.0042,16.0085,4.9892,-46.0021,
10.3790,-0.0095,0.0188,1.0223,-0.0126,0.0173,0.0365,-0.0080,0.0034,0.0026,16.0085,4.9892,-46.0021,
10.4040,-0.0095,0.0188,1.0223,-0.0126,0.0173,0.0365,-0.0080,0.0034,0.0026,16.0383,4.9847,-45.9750,
10.4060,-0.0097,0.0187,1.0289,-0.0126,0.0173,0.0365,-0.0080,0.0034,0.0026,16.0383,4.9847,-45.9750,
10.4130,-0.0092,0.0195,1.0269,-0.0126,0.0173,0.0365,-0.0080,0.0034,0.0026,16.0383,4.9847,-45.9750,
10.4130,-0.0092,0.0195,1.0269,-0.0211,0.0254,-0.0092,-0.0080,0.0034,0.0026,16.0383,4.9847,-45.9750,
10.4140,-0.0092,0.0195,1.0269,-0.0211,0.0254,-0.0092,-0.0009,-0.0119,-0.0032,16.0383,4.9847,-45.9750,
10.4440,-0.0089,0.0202,1.0234,-0.0211,0.0254,-0.0092,-0.0009,-0.0119,-0.0032,16.0383,4.9847,-45.9750,
10.4640,-0.0089,0.0202,1.0234,-0.0211,0.0254,-0.0092,-0.0009,-0.0119,-0.0032,16.0912,4.9892,-45.9927,
10.4660,-0.0089,0.0202,1.0234,-0.0211,0.0254,-0.0092,0.0043,-0.0067,-0.0004,16.0912,4.9892,-45.9927,
10.4660,-0.0081,0.0203,1.0221,-0.0211,0.0254,-0.0092,0.0043,-0.0067,-0.0004,16.0912,4.9892,-45.9927,
10.4910,-0.0068,0.0199,1.0234,-0.0211,0.0254,-0.0092,0.0043,-0.0067,-0.0004,16.0912,4.9892,-45.9927,
10.4920,-0.0068,0.0199,1.0234,-0.0211,0.0254,-0.0092,0.0033,0.0028,0.0005,16.0912,4.9892,-45.9927,
10.4920,-0.0068,0.0199,1.0234,-0.0548,0.0120,0.0150,0.0033,0.0028,0.0005,16.0912,4.9892,-45.9927,
10.4930,-0.0028,0.0208,1.0280,-0.0548,0.0120,0.0150,0.0033,0.0028,0.0005,16.0912,4.9892,-45.9927,
10.5100,-0.0005,0.0218,1.0211,-0.0548,0.0120,0.0150,0.0033,0.0028,0.0005,16.0912,4.9892,-45.9927,
10.5450,-0.0005,0.0218,1.0211,-0.0548,0.0120,0.0150,-0.0073,0.0150,-0.0007,16.0912,4.9892,-45.9927,
10.5460,-0.0021,0.0218,1.0297,-0.0548,0.0120,0.0150,-0.0073,0.0150,-0.0007,16.0912,4.9892,-45.9927,
10.5470,-0.0021,0.0218,1.0297,-0.0548,0.0120,0.0150,-0.0073,0.0150,-0.0007,16.1199,4.9710,-45.9766,
10.5480,-0.0071,0.0182,1.0299,-0.0548,0.0120,0.0150,-0.0073,0.0150,-0.0007,16.1199,4.9710,-45.9766,
10.5480,-0.0071,0.0182,1.0299,-0.0128,0.0119,0.0031,-0.0073,0.0150,-0.0007,16.1199,4.9710,-45.9766,
10.5770,-0.0127,0.0110,1.0236,-0.0128,0.0119,0.0031,-0.0073,0.0150,-0.0007,16.1199,4.9710,-45.9766,
10.5780,-0.0127,0.0110,1.0236,-0.0128,0.0119,0.0031,0.0376,0.0107,-0.0038,16.1199,4.9710,-45.9766,
10.6040,-0.0110,0.0188,1.0153,-0.0128,0.0119,0.0031,0.0376,0.0107,-0.0038,16.1199,4.9710,-45.9766,
10.6050,-0.0110,0.0188,1.0153,-0.0128,0.0119,0.0031,0.0376,0.0107,-0.0038,16.1153,4.9651,-45.9794,
10.6270,-0.0110,0.0188,1.0153,0.0043,0.0069,0.0121,0.0376,0.0107,-0.0038,16.1153,4.9651,-45.9794,
10.6290,-0.0081,0.0275,1.0253,0.0043,0.0069,0.0121,0.0376,0.0107,-0.0038,16.1153,4.9651,-45.9794,
10.6290,-0.0101,0.0213,1.0260,0.0043,0.0069,0.0121,0.0376,0.0107,-0.0038,16.1153,4.9651,-45.9794,
10.6290,-0.0101,0.0213,1.0260,0.0043,0.0069,0.0121,-0.0177,0.0034,-0.0016,16.1153,4.9651,-45.9794,
10.6660,-0.0101,0.0213,1.0260,0.0043,0.0069,0.0121,-0.0028,-0.0140,-0.0016,16.1153,4.9651,-45.9794,
10.6670,-0.0039,0.0169,1.0301,0.0043,0.0069,0.0121,-0.0028,-0.0140,-0.0016,16.1153,4.9651,-45.9794,
10.6670,-0.0039,0.0169,1.0301,0.0043,0.0069,0.0121,-0.0028,-0.0140,-0.0016,16.1289,4.9752,-45.9482,
10.6860,-0.0039,0.0169,1.0301,0.0043,0.0069,0.0121,0.0064,0.0046,-0.0004,16.1289,4.9752,-45.9482,
10.6870,-0.0004,0.0204,1.0236,0.0043,0.0069,0.0121,0.0064,0.0046,-0.0004,16.1289,4.9752,-45.9482,
10.6880,-0.0009,0.0208,1.0251,0.0043,0.0069,0.0121,0.0064,0.0046,-0.0004,16.1289,4.9752,-45.9482,
10.6880,-0.0009,0.0208,1.0251,-0.0471,0.0154,-0.0077,0.0064,0.0046,-0.0004,16.1289,4.9752,-45.9482,
10.7110,-0.0049,0.0179,1.0290,-0.0471,0.0154,-0.0077,0.0064,0.0046,-0.0004,16.1289,4.9752,-45.9482,
10.7460,-0.0049,0.0179,1.0290,-0.0471,0.0154,-0.0077,-0.0006,-0.0002,0.0011,16.1289,4.9752,-45.9482,
10.7480,-0.0094,0.0201,1.0255,-0.0471,0.0154,-0.0077,-0.0006,-0.0002,0.0011,16.1289,4.9752,-45.9482,
10.7490,-0.0115,0.0262,1.0232,-0.0471,0.0154,-0.0077,-0.0006,-0.0002,0.0011,16.1289,4.9752,-45.9482,
10.7490,-0.0115,0.0262,1.0232,-0.0471,0.0154,-0.0077,-0.0006,-0.0002,0.0011,16.1389,4.9601,-45.9247,
10.7640,-0.0115,0.0262,1.0232,0.0260,0.0035,0.0223,-0.0006,-0.0002,0.0011,16.1389,4.9601,-45.9247,
10.7650,-0.0115,0.0262,1.0232,0.0260,0.0035,0.0223,-0.0049,-0.0079,0.0039,16.1389,4.9601,-45.9247,
10.7660,-0.0112,0.0250,1.0230,0.0260,0.0035,0.0223,-0.0049,-0.0079,0.0039,16.1389,4.9601,-45.9247,
10.8040,-0.0100,0.0196,1.0246,0.0260,0.0035,0.0223,-0.0049,-0.0079,0.0039,16.1389,4.9601,-45.9247,
10.8060,-0.0100,0.0196,1.0246,0.0260,0.0035,0.0223,-0.0104,-0.0042,0.0005,16.1389,4.9601,-45.9247,
10.8060,-0.0082,0.0190,1.0266,0.0260,0.0035,0.0223,-0.0104,-0.0042,0.0005,16.1389,4.9601,-45.9247,
10.8070,-0.0082,0.0190,1.0266,0.0260,0.0035,0.0223,-0.0104,-0.0042,0.0005,16.1927,4.9516,-45.9253,
10.8230,-0.0082,0.0190,1.0266,-0.0498,0.0381,0.0011,-0.0104,-0.0042,0.0005,16.1927,4.9516,-45.9253,
10.8240,-0.0092,0.0198,1.0264,-0.0498,0.0381,0.0011,-0.0104,-0.0042,0.0005,16.1927,4.9516,-45.9253,
10.8440,-0.0066,0.0215,1.0173,-0.0498,0.0381,0.0011,-0.0104,-0.0042,0.0005,16.1927,4.9516,-45.9253,
10.8450,-0.0066,0.0215,1.0173,-0.0498,0.0381,0.0011,-0.0089,-0.0015,0.0005,16.1927,4.9516,-45.9253,
10.8650,-0.0053,0.0228,1.0377,-0.0498,0.0381,0.0011,-0.0089,-0.0015,0.0005,16.1927,4.9516,-45.9253,
10.8660,-0.0053,0.0228,1.0377,-0.0498,0.0381,0.0011,-0.0089,-0.0015,0.0005,16.1932,4.9263,-45.8932,
10.9010,-0.0064,0.0204,1.0030,-0.0498,0.0381,0.0011,-0.0089,-0.0015,0.0005,16.1932,4.9263,-45.8932,
10.9030,-0.0147,0.0152,1.0424,-0.0498,0.0381,0.0011,-0.0089,-0.0015,0.0005,16.1932,4.9263,-45.8932,
10.9030,-0.0147,0.0152,1.0424,-0.0498,0.0381,0.0011,-0.0083,0.0147,0.0029,16.1932,4.9263,-45.8932,
10.9040,-0.0147,0.0152,1.0424,-0.0285,0.0122,0.0083,-0.0083,0.0147,0.0029,16.1932,4.9263,-45.8932,
10.9440,-0.0147,0.0152,1.0424,-0.0285,0.0122,0.0083,-0.0003,-0.0122,-0.0007,16.1932,4.9263,-45.8932,
10.9450,-0.0064,0.0199,1.0203,-0.0285,0.0122,0.0083,-0.0003,-0.0122,-0.0007,16.1932,4.9263,-45.8932,
10.9450,-0.0064,0.0199,1.0203,-0.0285,0.0122,0.0083,-0.0003,-0.0122,-0.0007,16.2211,4.9271,-45.9351,
10.9460,-0.0056,0.0235,1.0235,-0.0285,0.0122,0.0083,-0.0003,-0.0122,-0.0007,16.2211,4.9271,-45.9351,
10.9580,-0.0056,0.0235,1.0235,-0.0285,0.0122,0.0083,-0.0000,-0.0100,-0.0007,16.2211,4.9271,-45.9351,
10.9600,-0.0011,0.0195,1.0261,-0.0285,0.0122,0.0083,-0.0000,-0.0100,-0.0007,16.2211,4.9271,-45.9351,
10.9600,-0.0011,0.0195,1.0261,-0.0287,0.0114,0.0076,-0.0000,-0.0100,-0.0007,16.2211,4.9271,-45.9351,
11.0040,-0.0009,0.0174,1.0256,-0.0287,0.0114,0.0076,-0.0000,-0.0100,-0.0007,16.2211,4.9271,-45.9351,
11.0060,-0.0009,0.0174,1.0256,-0.0287,0.0114,0.0076,-0.0089,-0.0061,0.0026,16.2211,4.9271,-45.9351,
11.0060,-0.0009,0.0174,1.0256,-0.0287,0.0114,0.0076,-0.0089,-0.0061,0.0026,16.1740,4.9247,-45.8943,
11.0070,-0.0075,0.0203,1.0249,-0.0287,0.0114,0.0076,-0.0089,-0.0061,0.0026,16.1740,4.9247,-45.8943,
11.0380,-0.0084,0.0214,1.0219,-0.0287,0.0114,0.0076,-0.0089,-0.0061,0.0026,16.1740,4.9247,-45.8943,
11.0390,-0.0084,0.0214,1.0219,-0.0287,0.0114,0.0076,-0.0104,-0.0054,0.0014,16.1740,4.9247,-45.8943,
11.0400,-0.0092,0.0209,1.0233,-0.0287,0.0114,0.0076,-0.0104,-0.0054,0.0014,16.1740,4.9247,-45.8943,
11.0400,-0.0092,0.0209,1.0233,0.0112,0.0211,-0.0077,-0.0104,-0.0054,0.0014,16.1740,4.9247,-45.8943,
11.0640,-0.0106,0.0198,1.0205,0.0112,0.0211,-0.0077,-0.0104,-0.0054,0.0014,16.1740,4.9247,-45.8943,
11.0650,-0.0106,0.0198,1.0205,0.0112,0.0211,-0.0077,-0.0104,-0.0054,0.0014,16.1753,4.9312,-45.9216,
11.0970,-0.0106,0.0198,1.0205,-0.0236,0.0195,-0.0095,-0.0104,-0.0054,0.0014,16.1753,4.9312,-45.9216,
11.0980,-0.0121,0.0199,1.0236,-0.0236,0.0195,-0.0095,-0.0104,-0.0054,0.0014,16.1753,4.9312,-45.9216,
11.0990,-0.0119,0.0215,1.0230,-0.0236,0.0195,-0.0095,-0.0104,-0.0054,0.0014,16.1753,4.9312,-45.9216,
11.0990,-0.0119,0.0215,1.0230,-0.0236,0.0195,-0.0095,0.0015,0.0007,-0.0038,16.1753,4.9312,-45.9216,
11.1450,-0.0087,0.0220,1.0232,-0.0236,0.0195,-0.0095,0.0015,0.0007,-0.0038,16.1753,4.9312,-45.9216,
11.1470,-0.0079,0.0202,1.0240,-0.0236,0.0195,-0.0095,0.0015,0.0007,-0.0038,16.1753,4.9312,-45.9216,
11.1480,-0.0079,0.0202,1.0240,-0.0236,0.0195,-0.0095,0.0015,0.0007,-0.0038,16.2120,4.9416,-45.9237,
11.1480,-0.0079,0.0202,1.0240,-0.0236,0.0195,-0.0095,0.0015,-0.0057,-0.0029,16.2120,4.9416,-45.9237,
11.1730,-0.0076,0.0202,1.0205,-0.0236,0.0195,-0.0095,0.0015,-0.0057,-0.0029,16.2120,4.9416,-45.9237,
11.1740,-0.0076,0.0202,1.0205,-0.0540,0.0201,-0.0173,0.0015,-0.0057,-0.0029,16.2120,4.9416,-45.9237,
11.1750,-0.0076,0.0202,1.0205,-0.0540,0.0201,-0.0173,0.0003,-0.0024,-0.0007,16.2120,4.9416,-45.9237,
11.1760,-0.0056,0.0218,1.0190,-0.0540,0.0201,-0.0173,0.0003,-0.0024,-0.0007,16.2120,4.9416,-45.9237,
11.2040,-0.0040,0.0202,1.0284,-0.0540,0.0201,-0.0173,0.0003,-0.0024,-0.0007,16.2120,4.9416,-45.9237,
11.2050,-0.0040,0.0202,1.0284,-0.0540,0.0201,-0.0173,-0.0034,0.0028,-0.0029,16.2120,4.9416,-45.9237,
11.2060,-0.0040,0.0202,1.0284,-0.0540,0.0201,-0.0173,-0.0034,0.0028,-0.0029,16.2420,4.9506,-45.9428,
11.2330,-0.0004,0.0191,1.0223,-0.0540,0.0201,-0.0173,-0.0034,0.0028,-0.0029,16.2420,4.9506,-45.9428,
11.2340,-0.0034,0.0202,1.0217,-0.0540,0.0201,-0.0173,-0.0034,0.0028,-0.0029,16.2420,4.9506,-45.9428,
11.2340,-0.0034,0.0202,1.0217,-0.0540,0.0201,-0.0173,-0.0128,0.0135,-0.0026,16.2420,4.9506,-45.9428,
11.2350,-0.0034,0.0202,1.0217,-0.0062,0.0227,-0.0246,-0.0128,0.0135,-0.0026,16.2420,4.9506,-45.9428,
11.2640,-0.0095,0.0187,1.0256,-0.0062,0.0227,-0.0246,-0.0128,0.0135,-0.0026,16.2420,4.9506,-45.9428,
11.2650,-0.0095,0.0187,1.0256,-0.0062,0.0227,-0.0246,-0.0128,0.0135,-0.0026,16.3116,4.9812,-45.9653,
11.3100,-0.0163,0.0143,1.0252,-0.0062,0.0227,-0.0246,-0.0128,0.0135,-0.0026,16.3116,4.9812,-45.9653,
11.3110,-0.0136,0.0202,1.0100,-0.0062,0.0227,-0.0246,-0.0128,0.0135,-0.0026,16.3116,4.9812,-45.9653,
11.3120,-0.0136,0.0202,1.0100,-0.0062,0.0227,-0.0246,0.0302,0.0150,-0.0020,16.3116,4.9812,-45.9653,
11.3130,-0.0136,0.0202,1.0100,-0.0062,0.0227,-0.0246,-0.0336,0.0013,0.0014,16.3116,4.9812,-45.9653,
11.3130,-0.0115,0.0265,1.0271,-0.0062,0.0227,-0.0246,-0.0336,0.0013,0.0014,16.3116,4.9812,-45.9653,
11.3150,-0.0115,0.0265,1.0271,0.0296,0.0133,0.0134,-0.0336,0.0013,0.0014,16.3116,4.9812,-45.9653,
11.3440,-0.0115,0.0265,1.0271,0.0296,0.0133,0.0134,-0.0336,0.0013,0.0014,16.3200,5.0086,-45.9633,
11.3450,-0.0126,0.0207,1.0277,0.0296,0.0133,0.0134,-0.0336,0.0013,0.0014,16.3200,5.0086,-45.9633,
11.3680,-0.0126,0.0207,1.0277,0.0296,0.0133,0.0134,-0.0138,-0.0131,-0.0004,16.3200,5.0086,-45.9633,
11.3700,-0.0126,0.0207,1.0277,-0.0614,0.0168,-0.0334,-0.0138,-0.0131,-0.0004,16.3200,5.0086,-45.9633,
11.3700,-0.0100,0.0144,1.0286,-0.0614,0.0168,-0.0334,-0.0138,-0.0131,-0.0004,16.3200,5.0086,-45.9633,
11.3710,-0.0073,0.0176,1.0240,-0.0614,0.0168,-0.0334,-0.0138,-0.0131,-0.0004,16.3200,5.0086,-45.9633,
11.4040,-0.0073,0.0176,1.0240,-0.0614,0.0168,-0.0334,0.0024,0.0083,-0.0023,16.3200,5.0086,-45.9633,
11.4060,-0.0037,0.0215,1.0225,-0.0614,0.0168,-0.0334,0.0024,0.0083,-0.0023,16.3200,5.0086,-45.9633,
11.4060,-0.0037,0.0215,1.0225,-0.0614,0.0168,-0.0334,0.0024,0.0083,-0.0023,16.3148,5.0122,-45.9529,
11.4170,-0.0048,0.0203,1.0295,-0.0614,0.0168,-0.0334,0.0024,0.0083,-0.0023,16.3148,5.0122,-45.9529,
11.4450,-0.0048,0.0203,1.0295,-0.0614,0.0168,-0.0334,-0.0052,-0.0027,0.0002,16.3148,5.0122,-45.9529,
11.4460,-0.0078,0.0204,1.0300,-0.0614,0.0168,-0.0334,-0.0052,-0.0027,0.0002,16.3148,5.0122,-45.9529,
11.4460,-0.0116,0.0212,1.0247,-0.0614,0.0168,-0.0334,-0.0052,-0.0027,0.0002,16.3148,5.0122,-45.9529,
11.4470,-0.0116,0.0212,1.0247,-0.0211,0.0004,0.0231,-0.0052,-0.0027,0.0002,16.3148,5.0122,-45.9529,
