
time,gFx,gFy,gFz,ax,ay,az,wx,wy,wz,Bx,By,Bz,
0.0470,-0.6563,0.3742,0.5911,0.0000,0.0000,0.0000,0.0000,0.0000,0.0000,0.0000,0.0000,0.0000,
0.0470,-0.6563,0.3742,0.5911,0.0000,0.0000,0.0000,0.0073,-0.3330,-0.1174,0.0000,0.0000,0.0000,
0.0640,-0.6420,0.3639,0.6241,0.0000,0.0000,0.0000,0.0073,-0.3330,-0.1174,0.0000,0.0000,0.0000,
0.0890,-0.5956,0.3407,0.6403,0.0000,0.0000,0.0000,0.0073,-0.3330,-0.1174,0.0000,0.0000,0.0000,
0.0900,-0.6013,0.3187,0.6356,0.0000,0.0000,0.0000,0.0073,-0.3330,-0.1174,0.0000,0.0000,0.0000,
0.0910,-0.6013,0.3187,0.6356,0.0000,0.0000,0.0000,-0.1971,-0.6424,-0.0426,0.0000,0.0000,0.0000,
0.1090,-0.6013,0.3187,0.6356,0.0000,0.0000,0.0000,-0.2190,-0.6659,-0.1687,0.0000,0.0000,0.0000,
0.1100,-0.6118,0.3142,0.6810,0.0000,0.0000,0.0000,-0.2190,-0.6659,-0.1687,0.0000,0.0000,0.0000,
0.1540,-0.5973,0.3065,0.6977,0.0000,0.0000,0.0000,-0.2190,-0.6659,-0.1687,0.0000,0.0000,0.0000,
0.1550,-0.5973,0.3065,0.6977,0.0000,0.0000,0.0000,-0.2190,-0.6659,-0.1687,40.6770,-10.8692,-24.4314,
0.1560,-0.5720,0.2794,0.6355,0.0000,0.0000,0.0000,-0.2190,-0.6659,-0.1687,40.6770,-10.8692,-24.4314,
0.1570,-0.5720,0.2794,0.6355,0.0000,0.0000,0.0000,-0.1803,-1.2761,-0.2359,40.6770,-10.8692,-24.4314,
0.1660,-0.5852,0.2722,0.6456,0.0000,0.0000,0.0000,-0.1803,-1.2761,-0.2359,40.6770,-10.8692,-24.4314,
0.1670,-0.5852,0.2722,0.6456,0.0000,0.0000,0.0000,-0.1803,-1.2761,-0.2359,40.6770,-10.8692,-24.4314,
0.2220,-0.5316,0.2692,0.7041,0.0000,0.0000,0.0000,-0.1803,-1.2761,-0.2359,40.6770,-10.8692,-24.4314,
0.2230,-0.3099,0.2507,0.6435,0.0000,0.0000,0.0000,-0.1803,-1.2761,-0.2359,40.6770,-10.8692,-24.4314,
0.2240,-0.3099,0.2507,0.6435,0.0000,0.0000,0.0000,-0.1803,-1.2761,-0.2359,39.1136,-10.6124,-26.5256,
0.2240,-0.3099,0.2507,0.6435,0.0000,0.0000,0.0000,-0.3247,-1.8485,-0.2719,39.1136,-10.6124,-26.5256,
0.2430,-0.3099,0.2507,0.6435,0.0000,0.0000,0.0000,-0.8598,-1.8473,-0.1815,39.1136,-10.6124,-26.5256,
0.2450,-0.2875,0.2872,0.8090,0.0000,0.0000,0.0000,-0.8598,-1.8473,-0.1815,39.1136,-10.6124,-26.5256,
0.2460,-0.3211,0.2468,0.8277,0.0000,0.0000,0.0000,-0.8598,-1.8473,-0.1815,39.1136,-10.6124,-26.5256,
0.2470,-0.3211,0.2468,0.8277,-0.3073,0.0370,-0.3511,-0.8598,-1.8473,-0.1815,39.1136,-10.6124,-26.5256,
0.2890,-0.2591,0.1895,0.8332,-0.3073,0.0370,-0.3511,-0.8598,-1.8473,-0.1815,39.1136,-10.6124,-26.5256,
0.2900,-0.2591,0.1895,0.8332,-0.3073,0.0370,-0.3511,-1.5046,-1.6347,-0.1647,39.1136,-10.6124,-26.5256,
0.2910,-0.2841,0.2437,0.8291,-0.3073,0.0370,-0.3511,-1.5046,-1.6347,-0.1647,39.1136,-10.6124,-26.5256,
0.2910,-0.2841,0.2437,0.8291,-0.3073,0.0370,-0.3511,-1.5046,-1.6347,-0.1647,37.7777,-9.7175,-28.5380,
0.3020,-0.2841,0.2437,0.8291,-0.3073,0.0370,-0.3511,-1.6876,-1.4716,-0.5059,37.7777,-9.7175,-28.5380,
0.3030,-0.2841,0.2437,0.8291,1.0011,0.5311,-0.2275,-1.6876,-1.4716,-0.5059,37.7777,-9.7175,-28.5380,
0.3040,-0.4280,0.2831,0.9010,1.0011,0.5311,-0.2275,-1.6876,-1.4716,-0.5059,37.7777,-9.7175,-28.5380,
0.3550,-0.4280,0.2831,0.9010,1.0011,0.5311,-0.2275,-1.7352,-1.5400,-0.3431,37.7777,-9.7175,-28.5380,
0.3580,-0.4636,0.2490,1.0459,1.0011,0.5311,-0.2275,-1.7352,-1.5400,-0.3431,37.7777,-9.7175,-28.5380,
0.3580,-0.4235,0.2331,1.1808,1.0011,0.5311,-0.2275,-1.7352,-1.5400,-0.3431,37.7777,-9.7175,-28.5380,
0.3590,-0.4235,0.2331,1.1808,1.0011,0.5311,-0.2275,-1.7352,-1.5400,-0.3431,35.7443,-7.3996,-30.9658,
0.3760,-0.4463,0.2779,1.3016,1.0011,0.5311,-0.2275,-1.7352,-1.5400,-0.3431,35.7443,-7.3996,-30.9658,
0.3800,-0.4097,0.2154,1.1626,1.0011,0.5311,-0.2275,-1.7352,-1.5400,-0.3431,35.7443,-7.3996,-30.9658,
0.3810,-0.4097,0.2154,1.1626,1.0011,0.5311,-0.2275,-0.8324,-1.9848,0.0139,35.7443,-7.3996,-30.9658,
0.3820,-0.4097,0.2154,1.1626,-0.0803,0.7658,0.3107,-0.8324,-1.9848,0.0139,35.7443,-7.3996,-30.9658,
0.4220,-0.4097,0.2154,1.1626,-0.0803,0.7658,0.3107,-0.2771,-1.5361,0.2876,35.7443,-7.3996,-30.9658,
0.4240,-0.4097,0.2154,1.1626,-0.0803,0.7658,0.3107,-0.2771,-1.5361,0.2876,33.7199,-5.8880,-32.9365,
0.4250,-0.3382,0.1520,1.0393,-0.0803,0.7658,0.3107,-0.2771,-1.5361,0.2876,33.7199,-5.8880,-32.9365,
0.4260,-0.3051,0.0915,0.9420,-0.0803,0.7658,0.3107,-0.2771,-1.5361,0.2876,33.7199,-5.8880,-32.9365,
0.4390,-0.3051,0.0915,0.9420,-1.4824,0.6828,2.4829,-0.2771,-1.5361,0.2876,33.7199,-5.8880,-32.9365,
0.4400,-0.2278,0.0598,0.9507,-1.4824,0.6828,2.4829,-0.2771,-1.5361,0.2876,33.7199,-5.8880,-32.9365,
0.4890,-0.1189,0.0763,0.9397,-1.4824,0.6828,2.4829,-0.2771,-1.5361,0.2876,33.7199,-5.8880,-32.9365,
0.4900,-0.1189,0.0763,0.9397,-1.4824,0.6828,2.4829,-0.2771,-1.5361,0.2876,31.7969,-4.7883,-34.6757,
0.4910,-0.1313,0.0727,0.9836,-1.4824,0.6828,2.4829,-0.2771,-1.5361,0.2876,31.7969,-4.7883,-34.6757,
0.4920,-0.1313,0.0727,0.9836,-1.4824,0.6828,2.4829,-0.3052,-1.6799,0.3994,31.7969,-4.7883,-34.6757,
0.5090,-0.0512,0.0530,1.0090,-1.4824,0.6828,2.4829,-0.3052,-1.6799,0.3994,31.7969,-4.7883,-34.6757,
0.5100,-0.0512,0.0530,1.0090,-1.4824,0.6828,2.4829,-0.4781,-2.6048,0.5240,31.7969,-4.7883,-34.6757,
0.5170,-0.0512,0.0530,1.0090,-1.2535,-0.4307,-0.0625,-0.4781,-2.6048,0.5240,31.7969,-4.7883,-34.6757,
0.5180,0.0644,0.0948,1.1982,-1.2535,-0.4307,-0.0625,-0.4781,-2.6048,0.5240,31.7969,-4.7883,-34.6757,
0.5570,0.0111,0.1139,1.1415,-1.2535,-0.4307,-0.0625,-0.4781,-2.6048,0.5240,31.7969,-4.7883,-34.6757,
0.5580,0.0111,0.1139,1.1415,-1.2535,-0.4307,-0.0625,-0.4781,-2.6048,0.5240,29.4999,-3.9432,-36.2990,
0.5590,0.0111,0.1139,1.1415,-1.2535,-0.4307,-0.0625,-0.3305,-1.3962,0.6068,29.4999,-3.9432,-36.2990,
0.5770,0.0111,0.1139,1.1415,-1.2535,-0.4307,-0.0625,-0.0440,-0.0156,0.4538,29.4999,-3.9432,-36.2990,
0.5790,0.0922,0.1160,1.0261,-1.2535,-0.4307,-0.0625,-0.0440,-0.0156,0.4538,29.4999,-3.9432,-36.2990,
0.5800,0.0573,0.1083,1.0920,-1.2535,-0.4307,-0.0625,-0.0440,-0.0156,0.4538,29.4999,-3.9432,-36.2990,
0.5810,0.0573,0.1083,1.0920,0.6207,-0.5410,0.5435,-0.0440,-0.0156,0.4538,29.4999,-3.9432,-36.2990,
0.6210,0.0573,0.1083,1.0920,0.6207,-0.5410,0.5435,0.1197,0.0051,0.2928,29.4999,-3.9432,-36.2990,
0.6220,-0.0027,0.0124,1.0161,0.6207,-0.5410,0.5435,0.1197,0.0051,0.2928,29.4999,-3.9432,-36.2990,
0.6230,0.0892,-0.0215,1.0109,0.6207,-0.5410,0.5435,0.1197,0.0051,0.2928,29.4999,-3.9432,-36.2990,
0.6240,0.0892,-0.0215,1.0109,0.6207,-0.5410,0.5435,0.1197,0.0051,0.2928,27.6354,-3.2072,-37.3615,
0.6430,0.0961,0.0308,1.0150,0.6207,-0.5410,0.5435,0.1197,0.0051,0.2928,27.6354,-3.2072,-37.3615,
0.6540,0.0961,0.0308,1.0150,0.6207,-0.5410,0.5435,0.0378,0.0219,0.2320,27.6354,-3.2072,-37.3615,
0.6550,0.0647,0.1484,1.0582,0.6207,-0.5410,0.5435,0.0378,0.0219,0.2320,27.6354,-3.2072,-37.3615,
0.6560,0.0647,0.1484,1.0582,1.3303,-0.2988,0.7505,0.0378,0.0219,0.2320,27.6354,-3.2072,-37.3615,
0.6890,0.0991,0.1798,1.0587,1.3303,-0.2988,0.7505,0.0378,0.0219,0.2320,27.6354,-3.2072,-37.3615,
0.6910,0.0991,0.1798,1.0587,1.3303,-0.2988,0.7505,0.0378,0.0219,0.2320,24.3996,-1.8304,-40.0741,
0.7090,0.1072,0.1249,1.0542,1.3303,-0.2988,0.7505,0.0378,0.0219,0.2320,24.3996,-1.8304,-40.0741,
0.7100,0.1072,0.1249,1.0542,1.3303,-0.2988,0.7505,0.0644,-0.0407,-0.0038,24.3996,-1.8304,-40.0741,
0.7130,0.0872,0.1244,1.0162,1.3303,-0.2988,0.7505,0.0644,-0.0407,-0.0038,24.3996,-1.8304,-40.0741,
0.7140,0.0872,0.1244,1.0162,1.4331,-0.8132,0.2281,0.0644,-0.0407,-0.0038,24.3996,-1.8304,-40.0741,
0.7560,0.0872,0.1244,1.0162,1.4331,-0.8132,0.2281,0.0601,-0.0914,-0.1250,24.3996,-1.8304,-40.0741,
0.7580,-0.0084,0.1533,1.0034,1.4331,-0.8132,0.2281,0.0601,-0.0914,-0.1250,24.3996,-1.8304,-40.0741,
0.7590,-0.0152,0.1373,1.0126,1.4331,-0.8132,0.2281,0.0601,-0.0914,-0.1250,24.3996,-1.8304,-40.0741,
0.7600,-0.0152,0.1373,1.0126,1.4331,-0.8132,0.2281,0.0601,-0.0914,-0.1250,21.5322,-0.4906,-42.3008,
0.7760,-0.0152,0.1373,1.0126,1.4331,-0.8132,0.2281,-0.0227,-0.0508,-0.0719,21.5322,-0.4906,-42.3008,
0.7770,0.0595,0.1255,0.9991,1.4331,-0.8132,0.2281,-0.0227,-0.0508,-0.0719,21.5322,-0.4906,-42.3008,
0.7920,0.0595,0.1255,0.9991,1.3691,0.1764,0.2886,-0.0227,-0.0508,-0.0719,21.5322,-0.4906,-42.3008,
0.7930,0.0862,0.1342,1.0297,1.3691,0.1764,0.2886,-0.0227,-0.0508,-0.0719,21.5322,-0.4906,-42.3008,
0.8220,0.0862,0.1342,1.0297,1.3691,0.1764,0.2886,-0.0227,-0.0508,-0.0719,18.9823,0.5361,-44.0477,
0.8240,0.1148,0.1356,1.0262,1.3691,0.1764,0.2886,-0.0227,-0.0508,-0.0719,18.9823,0.5361,-44.0477,
0.8250,0.1148,0.1356,1.0262,1.3691,0.1764,0.2886,-0.0844,-0.0825,-0.0740,18.9823,0.5361,-44.0477,
0.8430,0.0680,0.1080,1.0030,1.3691,0.1764,0.2886,-0.0844,-0.0825,-0.0740,18.9823,0.5361,-44.0477,
0.8480,0.0009,0.0902,1.0128,1.3691,0.1764,0.2886,-0.0844,-0.0825,-0.0740,18.9823,0.5361,-44.0477,
0.8490,0.0009,0.0902,1.0128,1.3691,0.1764,0.2886,-0.1519,-0.1225,-0.0697,18.9823,0.5361,-44.0477,
0.8500,0.0009,0.0902,1.0128,0.6883,0.1766,0.0488,-0.1519,-0.1225,-0.0697,18.9823,0.5361,-44.0477,
0.8890,0.0564,0.0583,1.0261,0.6883,0.1766,0.0488,-0.1519,-0.1225,-0.0697,18.9823,0.5361,-44.0477,
0.8910,0.0550,0.0439,0.9920,0.6883,0.1766,0.0488,-0.1519,-0.1225,-0.0697,18.9823,0.5361,-44.0477,
0.8920,0.0550,0.0439,0.9920,0.6883,0.1766,0.0488,-0.1387,-0.1146,-0.0734,18.9823,0.5361,-44.0477,
0.8930,0.0550,0.0439,0.9920,0.6883,0.1766,0.0488,-0.1387,-0.1146,-0.0734,17.0970,0.7438,-45.0900,
0.9100,0.0226,0.0394,1.0167,0.6883,0.1766,0.0488,-0.1387,-0.1146,-0.0734,17.0970,0.7438,-45.0900,
0.9270,0.0606,0.0438,1.0379,0.6883,0.1766,0.0488,-0.1387,-0.1146,-0.0734,17.0970,0.7438,-45.0900,
0.9280,0.0606,0.0438,1.0379,0.6883,0.1766,0.0488,-0.1286,-0.1155,-0.1073,17.0970,0.7438,-45.0900,
0.9290,0.0606,0.0438,1.0379,0.7887,-0.0340,0.0592,-0.1286,-0.1155,-0.1073,17.0970,0.7438,-45.0900,
0.9560,0.0606,0.0438,1.0379,0.7887,-0.0340,0.0592,-0.1286,-0.1155,-0.1073,15.6314,0.9107,-45.8376,
0.9580,0.0867,0.0483,0.9805,0.7887,-0.0340,0.0592,-0.1286,-0.1155,-0.1073,15.6314,0.9107,-45.8376,
0.9770,0.0737,0.0264,1.0194,0.7887,-0.0340,0.0592,-0.1286,-0.1155,-0.1073,15.6314,0.9107,-45.8376,
0.9780,0.0737,0.0264,1.0194,0.7887,-0.0340,0.0592,-0.1467,0.0412,-0.1192,15.6314,0.9107,-45.8376,
0.9850,0.0546,0.0121,1.0019,0.7887,-0.0340,0.0592,-0.1467,0.0412,-0.1192,15.6314,0.9107,-45.8376,
0.9870,0.0546,0.0121,1.0019,0.7207,-0.5014,0.0442,-0.1467,0.0412,-0.1192,15.6314,0.9107,-45.8376,
1.0220,0.0546,0.0121,1.0019,0.7207,-0.5014,0.0442,-0.1311,0.0925,-0.1058,15.6314,0.9107,-45.8376,
1.0250,0.0491,0.0417,1.0239,0.7207,-0.5014,0.0442,-0.1311,0.0925,-0.1058,15.6314,0.9107,-45.8376,
1.0260,0.0491,0.0417,1.0239,0.7207,-0.5014,0.0442,-0.1311,0.0925,-0.1058,14.6354,1.0806,-46.2087,
1.0430,0.0843,0.0530,1.0520,0.7207,-0.5014,0.0442,-0.1311,0.0925,-0.1058,14.6354,1.0806,-46.2087,
1.0640,0.0531,0.0600,1.0181,0.7207,-0.5014,0.0442,-0.1311,0.0925,-0.1058,14.6354,1.0806,-46.2087,
1.0650,0.0298,0.0593,1.0141,0.7207,-0.5014,0.0442,-0.1311,0.0925,-0.1058,14.6354,1.0806,-46.2087,
1.0660,0.0298,0.0593,1.0141,0.7207,-0.5014,0.0442,-0.1143,0.2312,-0.0927,14.6354,1.0806,-46.2087,
1.0670,0.0298,0.0593,1.0141,0.9380,-0.5174,-0.0810,-0.1143,0.2312,-0.0927,14.6354,1.0806,-46.2087,
1.0890,0.0056,0.0461,1.0415,0.9380,-0.5174,-0.0810,-0.1143,0.2312,-0.0927,14.6354,1.0806,-46.2087,
1.0900,0.0056,0.0461,1.0415,0.9380,-0.5174,-0.0810,-0.1299,0.1432,-0.1241,14.6354,1.0806,-46.2087,
1.0920,0.0056,0.0461,1.0415,0.9380,-0.5174,-0.0810,-0.1299,0.1432,-0.1241,14.5351,1.2406,-46.2665,
1.1090,0.0214,0.0339,1.0501,0.9380,-0.5174,-0.0810,-0.1299,0.1432,-0.1241,14.5351,1.2406,-46.2665,
1.1220,0.0214,0.0339,1.0501,0.9380,-0.5174,-0.0810,-0.1748,0.2131,-0.1397,14.5351,1.2406,-46.2665,
1.1230,0.0205,0.0247,1.0727,0.9380,-0.5174,-0.0810,-0.1748,0.2131,-0.1397,14.5351,1.2406,-46.2665,
1.1260,0.0205,0.0247,1.0727,0.9159,-0.1323,0.1510,-0.1748,0.2131,-0.1397,14.5351,1.2406,-46.2665,
1.1560,0.0231,0.0192,1.0023,0.9159,-0.1323,0.1510,-0.1748,0.2131,-0.1397,14.5351,1.2406,-46.2665,
1.1570,0.0231,0.0192,1.0023,0.9159,-0.1323,0.1510,-0.1748,0.2131,-0.1397,14.6401,1.6171,-46.2523,
1.1760,-0.0332,0.0171,1.0483,0.9159,-0.1323,0.1510,-0.1748,0.2131,-0.1397,14.6401,1.6171,-46.2523,
1.1780,-0.0332,0.0171,1.0483,0.9159,-0.1323,0.1510,-0.1363,0.2651,-0.1510,14.6401,1.6171,-46.2523,
1.2010,-0.0332,0.0171,1.0483,0.9159,-0.1323,0.1510,-0.0682,0.2269,-0.0890,14.6401,1.6171,-46.2523,
1.2020,-0.0496,0.0022,1.0252,0.9159,-0.1323,0.1510,-0.0682,0.2269,-0.0890,14.6401,1.6171,-46.2523,
1.2020,-0.1080,0.0065,1.0589,0.9159,-0.1323,0.1510,-0.0682,0.2269,-0.0890,14.6401,1.6171,-46.2523,
1.2030,-0.1080,0.0065,1.0589,0.6576,-0.2800,0.3445,-0.0682,0.2269,-0.0890,14.6401,1.6171,-46.2523,
1.2220,-0.1080,0.0065,1.0589,0.6576,-0.2800,0.3445,-0.0682,0.2269,-0.0890,14.8454,2.0577,-46.2048,
1.2230,-0.0766,0.0076,1.0537,0.6576,-0.2800,0.3445,-0.0682,0.2269,-0.0890,14.8454,2.0577,-46.2048,
1.2430,-0.0696,0.0230,1.0417,0.6576,-0.2800,0.3445,-0.0682,0.2269,-0.0890,14.8454,2.0577,-46.2048,
1.2450,-0.0696,0.0230,1.0417,0.6576,-0.2800,0.3445,-0.0309,-0.0178,0.1111,14.8454,2.0577,-46.2048,
1.2590,-0.0710,0.0347,1.0517,0.6576,-0.2800,0.3445,-0.0309,-0.0178,0.1111,14.8454,2.0577,-46.2048,
1.2600,-0.0710,0.0347,1.0517,-0.0628,-0.4327,0.1854,-0.0309,-0.0178,0.1111,14.8454,2.0577,-46.2048,
1.2890,-0.0385,0.0395,1.0262,-0.0628,-0.4327,0.1854,-0.0309,-0.0178,0.1111,14.8454,2.0577,-46.2048,
1.2900,-0.0385,0.0395,1.0262,-0.0628,-0.4327,0.1854,-0.0645,-0.1228,0.1309,14.8454,2.0577,-46.2048,
1.2900,-0.0385,0.0395,1.0262,-0.0628,-0.4327,0.1854,-0.0645,-0.1228,0.1309,15.0616,2.4910,-46.0932,
1.3100,0.0204,0.0254,1.0043,-0.0628,-0.4327,0.1854,-0.0645,-0.1228,0.1309,15.0616,2.4910,-46.0932,
1.3390,0.0415,0.0114,0.9905,-0.0628,-0.4327,0.1854,-0.0645,-0.1228,0.1309,15.0616,2.4910,-46.0932,
1.3400,0.0415,0.0114,0.9905,-0.0628,-0.4327,0.1854,-0.0688,0.0265,0.1074,15.0616,2.4910,-46.0932,
1.3410,0.0712,0.0097,1.0024,-0.0628,-0.4327,0.1854,-0.0688,0.0265,0.1074,15.0616,2.4910,-46.0932,
1.3410,0.0712,0.0097,1.0024,-0.2007,-0.2437,0.2878,-0.0688,0.0265,0.1074,15.0616,2.4910,-46.0932,
1.3540,0.0712,0.0097,1.0024,-0.2007,-0.2437,0.2878,-0.0688,0.0265,0.1074,15.2414,2.9333,-45.9566,
1.3770,0.0760,0.0122,0.9951,-0.2007,-0.2437,0.2878,-0.0688,0.0265,0.1074,15.2414,2.9333,-45.9566,
1.3780,0.0842,0.0096,1.0225,-0.2007,-0.2437,0.2878,-0.0688,0.0265,0.1074,15.2414,2.9333,-45.9566,
1.3790,0.0842,0.0096,1.0225,-0.2007,-0.2437,0.2878,-0.0526,0.2134,0.0436,15.2414,2.9333,-45.9566,
1.3950,0.0842,0.0096,1.0225,-0.2007,-0.2437,0.2878,-0.0410,0.2736,-0.0319,15.2414,2.9333,-45.9566,
1.3960,0.0651,0.0228,1.0592,-0.2007,-0.2437,0.2878,-0.0410,0.2736,-0.0319,15.2414,2.9333,-45.9566,
1.3970,0.0651,0.0228,1.0592,0.9569,-0.2606,-0.1507,-0.0410,0.2736,-0.0319,15.2414,2.9333,-45.9566,
1.4220,0.0296,0.0361,1.0374,0.9569,-0.2606,-0.1507,-0.0410,0.2736,-0.0319,15.2414,2.9333,-45.9566,
1.4240,0.0296,0.0361,1.0374,0.9569,-0.2606,-0.1507,-0.0410,0.2736,-0.0319,15.6217,3.2686,-45.7683,
1.4420,0.0296,0.0361,1.0374,0.9569,-0.2606,-0.1507,0.0076,0.2522,-0.0175,15.6217,3.2686,-45.7683,
1.4440,0.0161,0.0283,1.0252,0.9569,-0.2606,-0.1507,0.0076,0.2522,-0.0175,15.6217,3.2686,-45.7683,
1.4730,0.0161,0.0283,1.0252,1.3817,-0.2609,0.1187,0.0076,0.2522,-0.0175,15.6217,3.2686,-45.7683,
1.4740,0.0161,0.0283,1.0252,1.3817,-0.2609,0.1187,-0.0007,0.2153,-0.0193,15.6217,3.2686,-45.7683,
1.4750,-0.0231,0.0246,1.0279,1.3817,-0.2609,0.1187,-0.0007,0.2153,-0.0193,15.6217,3.2686,-45.7683,
1.4760,-0.0592,0.0270,1.0071,1.3817,-0.2609,0.1187,-0.0007,0.2153,-0.0193,15.6217,3.2686,-45.7683,
1.4890,-0.0592,0.0270,1.0071,1.3817,-0.2609,0.1187,-0.0007,0.2153,-0.0193,16.1587,3.5933,-45.5109,
1.5100,-0.0821,0.0308,1.0081,1.3817,-0.2609,0.1187,-0.0007,0.2153,-0.0193,16.1587,3.5933,-45.5109,
1.5330,-0.0821,0.0308,1.0081,1.3817,-0.2609,0.1187,0.0045,0.1441,-0.0041,16.1587,3.5933,-45.5109,
1.5340,-0.0798,0.0287,1.0026,1.3817,-0.2609,0.1187,0.0045,0.1441,-0.0041,16.1587,3.5933,-45.5109,
1.5350,-0.0759,0.0243,0.9929,1.3817,-0.2609,0.1187,0.0045,0.1441,-0.0041,16.1587,3.5933,-45.5109,
1.5350,-0.0759,0.0243,0.9929,0.5814,-0.1516,0.0588,0.0045,0.1441,-0.0041,16.1587,3.5933,-45.5109,
1.5540,-0.0759,0.0243,0.9929,0.5814,-0.1516,0.0588,0.0161,0.0335,0.0045,16.1587,3.5933,-45.5109,
1.5550,-0.0759,0.0243,0.9929,0.5814,-0.1516,0.0588,0.0161,0.0335,0.0045,16.6565,3.8453,-45.3364,
1.5560,-0.0716,0.0292,0.9992,0.5814,-0.1516,0.0588,0.0161,0.0335,0.0045,16.6565,3.8453,-45.3364,
1.5760,-0.0573,0.0254,1.0068,0.5814,-0.1516,0.0588,0.0161,0.0335,0.0045,16.6565,3.8453,-45.3364,
1.6100,-0.0573,0.0254,1.0068,0.5814,-0.1516,0.0588,0.0024,0.0219,0.0042,16.6565,3.8453,-45.3364,
1.6120,-0.0419,0.0158,1.0115,0.5814,-0.1516,0.0588,0.0024,0.0219,0.0042,16.6565,3.8453,-45.3364,
1.6120,-0.0387,0.0204,1.0362,0.5814,-0.1516,0.0588,0.0024,0.0219,0.0042,16.6565,3.8453,-45.3364,
1.6130,-0.0387,0.0204,1.0362,-0.0214,-0.1559,-0.1385,0.0024,0.0219,0.0042,16.6565,3.8453,-45.3364,
1.6220,-0.0387,0.0204,1.0362,-0.0214,-0.1559,-0.1385,0.0024,0.0219,0.0042,17.0406,4.0355,-45.1056,
1.6420,-0.0237,0.0173,1.0203,-0.0214,-0.1559,-0.1385,0.0024,0.0219,0.0042,17.0406,4.0355,-45.1056,
1.6440,-0.0237,0.0173,1.0203,-0.0214,-0.1559,-0.1385,0.0067,0.0082,-0.0007,17.0406,4.0355,-45.1056,
1.6700,-0.0237,0.0173,1.0203,0.2861,-0.1861,0.0070,0.0067,0.0082,-0.0007,17.0406,4.0355,-45.1056,
1.6710,-0.0237,0.0173,1.0203,0.2861,-0.1861,0.0070,-0.0337,0.0513,-0.0407,17.0406,4.0355,-45.1056,
1.6720,-0.0332,0.0129,1.0161,0.2861,-0.1861,0.0070,-0.0337,0.0513,-0.0407,17.0406,4.0355,-45.1056,
1.6730,-0.0601,0.0201,1.0210,0.2861,-0.1861,0.0070,-0.0337,0.0513,-0.0407,17.0406,4.0355,-45.1056,
1.6890,-0.0601,0.0201,1.0210,0.2861,-0.1861,0.0070,-0.0337,0.0513,-0.0407,17.3825,4.0940,-44.9615,
1.6900,-0.0740,0.0223,1.0363,0.2861,-0.1861,0.0070,-0.0337,0.0513,-0.0407,17.3825,4.0940,-44.9615,
1.7100,-0.0586,0.0198,1.0178,0.2861,-0.1861,0.0070,-0.0337,0.0513,-0.0407,17.3825,4.0940,-44.9615,
1.7120,-0.0586,0.0198,1.0178,0.2861,-0.1861,0.0070,0.0076,0.0308,0.0033,17.3825,4.0940,-44.9615,
1.7470,-0.0610,0.0267,1.0093,0.2861,-0.1861,0.0070,0.0076,0.0308,0.0033,17.3825,4.0940,-44.9615,
1.7500,-0.0610,0.0267,1.0093,0.3129,-0.2128,0.0501,0.0076,0.0308,0.0033,17.3825,4.0940,-44.9615,
1.7510,-0.0463,0.0247,1.0106,0.3129,-0.2128,0.0501,0.0076,0.0308,0.0033,17.3825,4.0940,-44.9615,
1.7510,-0.0463,0.0247,1.0106,0.3129,-0.2128,0.0501,-0.0285,-0.0162,0.0136,17.3825,4.0940,-44.9615,
1.7550,-0.0463,0.0247,1.0106,0.3129,-0.2128,0.0501,-0.0285,-0.0162,0.0136,17.5903,4.1466,-44.8225,
1.7760,-0.0303,0.0120,1.0245,0.3129,-0.2128,0.0501,-0.0285,-0.0162,0.0136,17.5903,4.1466,-44.8225,
1.8060,-0.0373,0.0236,1.0168,0.3129,-0.2128,0.0501,-0.0285,-0.0162,0.0136,17.5903,4.1466,-44.8225,
1.8070,-0.0373,0.0236,1.0168,0.3129,-0.2128,0.0501,-0.0224,-0.0110,-0.0117,17.5903,4.1466,-44.8225,
1.8080,-0.0252,0.0166,1.0222,0.3129,-0.2128,0.0501,-0.0224,-0.0110,-0.0117,17.5903,4.1466,-44.8225,
1.8080,-0.0252,0.0166,1.0222,0.1786,-0.1382,0.0200,-0.0224,-0.0110,-0.0117,17.5903,4.1466,-44.8225,
1.8220,-0.0252,0.0166,1.0222,0.1786,-0.1382,0.0200,-0.0224,-0.0110,-0.0117,17.7963,4.1590,-44.7118,
1.8430,-0.0172,0.0141,1.0379,0.1786,-0.1382,0.0200,-0.0224,-0.0110,-0.0117,17.7963,4.1590,-44.7118,
1.8440,-0.0172,0.0141,1.0379,0.1786,-0.1382,0.0200,-0.0288,0.0097,0.0039,17.7963,4.1590,-44.7118,
1.8850,-0.0248,0.0175,1.0330,0.1786,-0.1382,0.0200,-0.0288,0.0097,0.0039,17.7963,4.1590,-44.7118,
1.8860,-0.0248,0.0175,1.0330,0.1786,-0.1382,0.0200,0.0021,0.0048,0.0121,17.7963,4.1590,-44.7118,
1.8870,-0.0248,0.0175,1.0330,0.4419,-0.1916,0.0734,0.0021,0.0048,0.0121,17.7963,4.1590,-44.7118,
1.8880,-0.0432,0.0195,1.0308,0.4419,-0.1916,0.0734,0.0021,0.0048,0.0121,17.7963,4.1590,-44.7118,
1.8890,-0.0403,0.0132,1.0214,0.4419,-0.1916,0.0734,0.0021,0.0048,0.0121,17.7963,4.1590,-44.7118,
1.8900,-0.0403,0.0132,1.0214,0.4419,-0.1916,0.0734,0.0021,0.0048,0.0121,18.0152,4.1814,-44.6128,
1.9090,-0.0403,0.0132,1.0214,0.4419,-0.1916,0.0734,-0.0056,0.0057,0.0164,18.0152,4.1814,-44.6128,
1.9110,-0.0373,0.0220,1.0224,0.4419,-0.1916,0.0734,-0.0056,0.0057,0.0164,18.0152,4.1814,-44.6128,
1.9420,-0.0373,0.0220,1.0224,0.4419,-0.1916,0.0734,-0.0007,0.0054,0.0063,18.0152,4.1814,-44.6128,
1.9440,-0.0352,0.0166,1.0300,0.4419,-0.1916,0.0734,-0.0007,0.0054,0.0063,18.0152,4.1814,-44.6128,
1.9450,-0.0429,0.0138,1.0133,0.4419,-0.1916,0.0734,-0.0007,0.0054,0.0063,18.0152,4.1814,-44.6128,
1.9460,-0.0429,0.0138,1.0133,0.3592,-0.1705,0.1287,-0.0007,0.0054,0.0063,18.0152,4.1814,-44.6128,
1.9560,-0.0429,0.0138,1.0133,0.3592,-0.1705,0.1287,-0.0007,0.0054,0.0063,18.0636,4.1734,-44.6244,
1.9760,-0.0553,0.0099,1.0312,0.3592,-0.1705,0.1287,-0.0007,0.0054,0.0063,18.0636,4.1734,-44.6244,
2.0190,-0.0492,0.0135,1.0202,0.3592,-0.1705,0.1287,-0.0007,0.0054,0.0063,18.0636,4.1734,-44.6244,
2.0210,-0.0492,0.0135,1.0202,0.3592,-0.1705,0.1287,-0.0138,0.0045,-0.0068,18.0636,4.1734,-44.6244,
2.0220,-0.0492,0.0135,1.0202,0.2561,-0.1519,0.0408,-0.0138,0.0045,-0.0068,18.0636,4.1734,-44.6244,
2.0220,-0.0492,0.0135,1.0202,0.2561,-0.1519,0.0408,0.0039,0.0018,-0.0111,18.0636,4.1734,-44.6244,
2.0230,-0.0528,0.0197,1.0112,0.2561,-0.1519,0.0408,0.0039,0.0018,-0.0111,18.0636,4.1734,-44.6244,
2.0240,-0.0520,0.0173,1.0211,0.2561,-0.1519,0.0408,0.0039,0.0018,-0.0111,18.0636,4.1734,-44.6244,
2.0250,-0.0520,0.0173,1.0211,0.2561,-0.1519,0.0408,0.0039,0.0018,-0.0111,18.0760,4.1735,-44.6368,
2.0430,-0.0508,0.0111,1.0208,0.2561,-0.1519,0.0408,0.0039,0.0018,-0.0111,18.0760,4.1735,-44.6368,
2.0800,-0.0508,0.0111,1.0208,0.1192,-0.1296,0.0263,0.0039,0.0018,-0.0111,18.0760,4.1735,-44.6368,
2.0810,-0.0508,0.0111,1.0208,0.1192,-0.1296,0.0263,-0.0120,-0.0227,-0.0013,18.0760,4.1735,-44.6368,
2.0820,-0.0473,0.0103,1.0258,0.1192,-0.1296,0.0263,-0.0120,-0.0227,-0.0013,18.0760,4.1735,-44.6368,
2.0840,-0.0410,0.0136,1.0230,0.1192,-0.1296,0.0263,-0.0120,-0.0227,-0.0013,18.0760,4.1735,-44.6368,
2.0870,-0.0410,0.0136,1.0230,0.1192,-0.1296,0.0263,-0.0120,-0.0227,-0.0013,18.1253,4.1855,-44.6344,
2.1100,-0.0286,0.0184,1.0290,0.1192,-0.1296,0.0263,-0.0120,-0.0227,-0.0013,18.1253,4.1855,-44.6344,
2.1110,-0.0286,0.0184,1.0290,0.1192,-0.1296,0.0263,-0.0022,-0.0138,0.0051,18.1253,4.1855,-44.6344,
2.1540,-0.0286,0.0184,1.0290,0.1192,-0.1296,0.0263,-0.0141,0.0042,0.0081,18.1253,4.1855,-44.6344,
2.1550,-0.0308,0.0188,1.0151,0.1192,-0.1296,0.0263,-0.0141,0.0042,0.0081,18.1253,4.1855,-44.6344,
2.1560,-0.0399,0.0158,1.0279,0.1192,-0.1296,0.0263,-0.0141,0.0042,0.0081,18.1253,4.1855,-44.6344,
2.1570,-0.0399,0.0158,1.0279,0.1192,-0.1296,0.0263,-0.0141,0.0042,0.0081,18.1859,4.1780,-44.6455,
2.1580,-0.0377,0.0160,1.0238,0.1192,-0.1296,0.0263,-0.0141,0.0042,0.0081,18.1859,4.1780,-44.6455,
2.1590,-0.0377,0.0160,1.0238,0.1778,-0.1410,0.0549,-0.0141,0.0042,0.0081,18.1859,4.1780,-44.6455,
2.1770,-0.0377,0.0160,1.0238,0.1778,-0.1410,0.0549,0.0021,-0.0010,-0.0084,18.1859,4.1780,-44.6455,
2.1780,-0.0434,0.0110,1.0181,0.1778,-0.1410,0.0549,0.0021,-0.0010,-0.0084,18.1859,4.1780,-44.6455,
2.2170,-0.0434,0.0110,1.0181,0.1778,-0.1410,0.0549,-0.0034,-0.0004,-0.0197,18.1859,4.1780,-44.6455,
2.2180,-0.0434,0.0110,1.0181,0.2339,-0.0849,0.0347,-0.0034,-0.0004,-0.0197,18.1859,4.1780,-44.6455,
2.2190,-0.0439,0.0116,1.0131,0.2339,-0.0849,0.0347,-0.0034,-0.0004,-0.0197,18.1859,4.1780,-44.6455,
2.2190,-0.0511,0.0226,1.0250,0.2339,-0.0849,0.0347,-0.0034,-0.0004,-0.0197,18.1859,4.1780,-44.6455,
2.2230,-0.0511,0.0226,1.0250,0.2339,-0.0849,0.0347,-0.0034,-0.0004,-0.0197,18.1507,4.1952,-44.6714,
2.2420,-0.0463,0.0252,1.0315,0.2339,-0.0849,0.0347,-0.0034,-0.0004,-0.0197,18.1507,4.1952,-44.6714,
2.2890,-0.0370,0.0135,1.0255,0.2339,-0.0849,0.0347,-0.0034,-0.0004,-0.0197,18.1507,4.1952,-44.6714,
2.2900,-0.0370,0.0135,1.0255,0.2339,-0.0849,0.0347,-0.0089,0.0137,0.0054,18.1507,4.1952,-44.6714,
2.2910,-0.0248,0.0116,1.0261,0.2339,-0.0849,0.0347,-0.0089,0.0137,0.0054,18.1507,4.1952,-44.6714,
2.2910,-0.0248,0.0116,1.0261,0.2339,-0.0849,0.0347,-0.0089,0.0137,0.0054,18.2123,4.2184,-44.6421,
2.2930,-0.0248,0.0116,1.0261,0.2339,-0.0849,0.0347,-0.0037,0.0293,-0.0035,18.2123,4.2184,-44.6421,
2.2950,-0.0337,0.0136,1.0216,0.2339,-0.0849,0.0347,-0.0037,0.0293,-0.0035,18.2123,4.2184,-44.6421,
2.2950,-0.0337,0.0136,1.0216,0.1228,-0.0770,0.0125,-0.0037,0.0293,-0.0035,18.2123,4.2184,-44.6421,
2.3530,-0.0494,0.0138,1.0222,0.1228,-0.0770,0.0125,-0.0037,0.0293,-0.0035,18.2123,4.2184,-44.6421,
2.3540,-0.0494,0.0138,1.0222,0.1228,-0.0770,0.0125,0.0140,0.0167,-0.0175,18.2123,4.2184,-44.6421,
2.3550,-0.0535,0.0208,1.0158,0.1228,-0.0770,0.0125,0.0140,0.0167,-0.0175,18.2123,4.2184,-44.6421,
2.3560,-0.0468,0.0143,1.0194,0.1228,-0.0770,0.0125,0.0140,0.0167,-0.0175,18.2123,4.2184,-44.6421,
2.3570,-0.0468,0.0143,1.0194,0.2292,-0.0860,0.0523,0.0140,0.0167,-0.0175,18.2123,4.2184,-44.6421,
2.3580,-0.0468,0.0143,1.0194,0.2292,-0.0860,0.0523,0.0140,0.0167,-0.0175,18.2383,4.2489,-44.6393,
2.3760,-0.0468,0.0143,1.0194,0.2292,-0.0860,0.0523,-0.0089,0.0012,-0.0053,18.2383,4.2489,-44.6393,
2.3770,-0.0464,0.0232,1.0267,0.2292,-0.0860,0.0523,-0.0089,0.0012,-0.0053,18.2383,4.2489,-44.6393,
2.4210,-0.0464,0.0232,1.0267,0.2292,-0.0860,0.0523,0.0012,0.0061,0.0014,18.2383,4.2489,-44.6393,
2.4230,-0.0464,0.0232,1.0267,0.2292,-0.0860,0.0523,0.0012,0.0061,0.0014,18.2518,4.2793,-44.6241,
2.4240,-0.0294,0.0206,1.0293,0.2292,-0.0860,0.0523,0.0012,0.0061,0.0014,18.2518,4.2793,-44.6241,
2.4240,-0.0358,0.0196,1.0201,0.2292,-0.0860,0.0523,0.0012,0.0061,0.0014,18.2518,4.2793,-44.6241,
2.4300,-0.0377,0.0126,1.0249,0.2292,-0.0860,0.0523,0.0012,0.0061,0.0014,18.2518,4.2793,-44.6241,
2.4310,-0.0377,0.0126,1.0249,0.0682,-0.0519,-0.0035,0.0012,0.0061,0.0014,18.2518,4.2793,-44.6241,
2.4890,-0.0357,0.0002,1.0249,0.0682,-0.0519,-0.0035,0.0012,0.0061,0.0014,18.2518,4.2793,-44.6241,
2.4900,-0.0357,0.0002,1.0249,0.0682,-0.0519,-0.0035,-0.0193,0.0134,0.0036,18.2518,4.2793,-44.6241,
2.4910,-0.0357,0.0002,1.0249,0.0682,-0.0519,-0.0035,-0.0117,-0.0178,0.0286,18.2518,4.2793,-44.6241,
2.4910,-0.0414,0.0000,1.0388,0.0682,-0.0519,-0.0035,-0.0117,-0.0178,0.0286,18.2518,4.2793,-44.6241,
2.4920,-0.0407,0.0226,1.0197,0.0682,-0.0519,-0.0035,-0.0117,-0.0178,0.0286,18.2518,4.2793,-44.6241,
2.4930,-0.0407,0.0226,1.0197,0.1734,-0.0273,0.0496,-0.0117,-0.0178,0.0286,18.2518,4.2793,-44.6241,
2.4930,-0.0407,0.0226,1.0197,0.1734,-0.0273,0.0496,-0.0117,-0.0178,0.0286,18.2765,4.3131,-44.5183,
2.5100,-0.0514,0.0235,1.0242,0.1734,-0.0273,0.0496,-0.0117,-0.0178,0.0286,18.2765,4.3131,-44.5183,
2.5540,-0.0522,0.0268,1.0207,0.1734,-0.0273,0.0496,-0.0117,-0.0178,0.0286,18.2765,4.3131,-44.5183,
2.5550,-0.0522,0.0268,1.0207,0.1734,-0.0273,0.0496,-0.0001,-0.0343,0.0405,18.2765,4.3131,-44.5183,
2.5560,-0.0520,0.0166,1.0100,0.1734,-0.0273,0.0496,-0.0001,-0.0343,0.0405,18.2765,4.3131,-44.5183,
2.5570,-0.0520,0.0166,1.0100,0.1734,-0.0273,0.0496,-0.0001,-0.0343,0.0405,18.3009,4.3252,-44.4782,
2.5660,-0.0496,0.0199,1.0170,0.1734,-0.0273,0.0496,-0.0001,-0.0343,0.0405,18.3009,4.3252,-44.4782,
2.5680,-0.0496,0.0199,1.0170,0.1734,-0.0273,0.0496,-0.0153,-0.0324,0.0604,18.3009,4.3252,-44.4782,
2.5680,-0.0496,0.0199,1.0170,0.0896,-0.0962,0.0556,-0.0153,-0.0324,0.0604,18.3009,4.3252,-44.4782,
2.6210,-0.0428,0.0220,1.0379,0.0896,-0.0962,0.0556,-0.0153,-0.0324,0.0604,18.3009,4.3252,-44.4782,
2.6220,-0.0428,0.0220,1.0379,0.0896,-0.0962,0.0556,-0.0123,0.0048,0.0604,18.3009,4.3252,-44.4782,
2.6230,-0.0424,0.0125,0.9942,0.0896,-0.0962,0.0556,-0.0123,0.0048,0.0604,18.3009,4.3252,-44.4782,
2.6240,-0.0424,0.0125,0.9942,0.0896,-0.0962,0.0556,-0.0123,0.0048,0.0604,18.2885,4.3250,-44.4658,
2.6260,-0.0424,0.0125,0.9942,-0.0149,0.0278,-0.0368,-0.0123,0.0048,0.0604,18.2885,4.3250,-44.4658,
2.6270,-0.0440,0.0003,1.0266,-0.0149,0.0278,-0.0368,-0.0123,0.0048,0.0604,18.2885,4.3250,-44.4658,
2.6880,-0.0406,-0.0009,1.0340,-0.0149,0.0278,-0.0368,-0.0123,0.0048,0.0604,18.2885,4.3250,-44.4658,
2.6890,-0.0406,-0.0009,1.0340,-0.0149,0.0278,-0.0368,-0.0123,0.0048,0.0604,18.2297,4.3502,-44.5177,
2.6900,-0.0253,0.0006,1.0282,-0.0149,0.0278,-0.0368,-0.0123,0.0048,0.0604,18.2297,4.3502,-44.5177,
2.6910,-0.0204,0.0044,1.0382,-0.0149,0.0278,-0.0368,-0.0123,0.0048,0.0604,18.2297,4.3502,-44.5177,
2.6920,-0.0204,0.0044,1.0382,-0.0149,0.0278,-0.0368,-0.0260,-0.0101,-0.0087,18.2297,4.3502,-44.5177,
2.6930,-0.0204,0.0044,1.0382,-0.0149,0.0278,-0.0368,-0.0071,-0.0016,0.0026,18.2297,4.3502,-44.5177,
2.7030,-0.0204,0.0044,1.0382,0.0548,-0.0814,0.0261,-0.0071,-0.0016,0.0026,18.2297,4.3502,-44.5177,
2.7040,-0.0341,0.0093,1.0236,0.0548,-0.0814,0.0261,-0.0071,-0.0016,0.0026,18.2297,4.3502,-44.5177,
2.7540,-0.0341,0.0093,1.0236,0.0548,-0.0814,0.0261,0.0412,-0.0224,0.0179,18.2297,4.3502,-44.5177,
2.7550,-0.0420,0.0066,1.0451,0.0548,-0.0814,0.0261,0.0412,-0.0224,0.0179,18.2297,4.3502,-44.5177,
2.7560,-0.0310,0.0016,1.0487,0.0548,-0.0814,0.0261,0.0412,-0.0224,0.0179,18.2297,4.3502,-44.5177,
2.7560,-0.0310,0.0016,1.0487,0.0548,-0.0814,0.0261,0.0412,-0.0224,0.0179,18.2677,4.3816,-44.5015,
2.7630,-0.0247,-0.0058,1.0301,0.0548,-0.0814,0.0261,0.0412,-0.0224,0.0179,18.2677,4.3816,-44.5015,
2.7640,-0.0247,-0.0058,1.0301,0.0548,-0.0814,0.0261,0.1560,-0.0001,0.0375,18.2677,4.3816,-44.5015,
2.7650,-0.0247,-0.0058,1.0301,0.1781,-0.2036,0.0611,0.1560,-0.0001,0.0375,18.2677,4.3816,-44.5015,
2.8210,-0.0390,-0.0111,1.0345,0.1781,-0.2036,0.0611,0.1560,-0.0001,0.0375,18.2677,4.3816,-44.5015,
2.8220,-0.0390,-0.0111,1.0345,0.1781,-0.2036,0.0611,0.1560,-0.0001,0.0375,18.2974,4.2340,-44.5739,
2.8230,-0.0390,-0.0111,1.0345,0.1781,-0.2036,0.0611,0.2638,0.0528,0.0451,18.2974,4.2340,-44.5739,
2.8230,-0.0542,-0.0025,1.0266,0.1781,-0.2036,0.0611,0.2638,0.0528,0.0451,18.2974,4.2340,-44.5739,
2.8240,-0.0578,0.0368,0.9909,0.1781,-0.2036,0.0611,0.2638,0.0528,0.0451,18.2974,4.2340,-44.5739,
2.8420,-0.0578,0.0368,0.9909,0.1781,-0.2036,0.0611,0.1960,0.0244,0.0842,18.2974,4.2340,-44.5739,
2.8430,-0.0569,0.0750,0.9959,0.1781,-0.2036,0.0611,0.1960,0.0244,0.0842,18.2974,4.2340,-44.5739,
2.8440,-0.0569,0.0750,0.9959,0.1391,-0.3657,0.1618,0.1960,0.0244,0.0842,18.2974,4.2340,-44.5739,
2.8880,-0.0569,0.0750,0.9959,0.1391,-0.3657,0.1618,0.0018,-0.0043,0.0781,18.2974,4.2340,-44.5739,
2.8890,-0.0569,0.0750,0.9959,0.1391,-0.3657,0.1618,0.0018,-0.0043,0.0781,18.3998,4.0798,-44.6442,
2.8900,-0.0538,0.0783,1.0002,0.1391,-0.3657,0.1618,0.0018,-0.0043,0.0781,18.3998,4.0798,-44.6442,
2.8910,-0.0575,0.0722,1.0031,0.1391,-0.3657,0.1618,0.0018,-0.0043,0.0781,18.3998,4.0798,-44.6442,
2.8980,-0.0586,0.0682,1.0162,0.1391,-0.3657,0.1618,0.0018,-0.0043,0.0781,18.3998,4.0798,-44.6442,
2.8990,-0.0586,0.0682,1.0162,-0.0737,-0.0462,-0.1240,0.0018,-0.0043,0.0781,18.3998,4.0798,-44.6442,
2.9540,-0.0586,0.0682,1.0162,-0.0737,-0.0462,-0.1240,-0.0553,-0.0159,0.0561,18.3998,4.0798,-44.6442,
2.9550,-0.0577,0.0337,1.0343,-0.0737,-0.0462,-0.1240,-0.0553,-0.0159,0.0561,18.3998,4.0798,-44.6442,
2.9560,-0.0601,0.0054,0.9980,-0.0737,-0.0462,-0.1240,-0.0553,-0.0159,0.0561,18.3998,4.0798,-44.6442,
2.9570,-0.0601,0.0054,0.9980,-0.0737,-0.0462,-0.1240,-0.0553,-0.0159,0.0561,18.4515,3.9058,-44.6532,
2.9770,-0.0561,0.0168,1.0371,-0.0737,-0.0462,-0.1240,-0.0553,-0.0159,0.0561,18.4515,3.9058,-44.6532,
2.9780,-0.0448,0.0256,1.0435,-0.0737,-0.0462,-0.1240,-0.0553,-0.0159,0.0561,18.4515,3.9058,-44.6532,
2.9790,-0.0448,0.0256,1.0435,-0.0737,-0.0462,-0.1240,-0.0361,-0.0288,0.0194,18.4515,3.9058,-44.6532,
2.9800,-0.0448,0.0256,1.0435,-0.1027,0.3063,-0.1064,-0.0361,-0.0288,0.0194,18.4515,3.9058,-44.6532,
3.0210,-0.0448,0.0256,1.0435,-0.1027,0.3063,-0.1064,0.0916,-0.0462,0.0036,18.4515,3.9058,-44.6532,
3.0220,-0.0386,0.0228,1.0188,-0.1027,0.3063,-0.1064,0.0916,-0.0462,0.0036,18.4515,3.9058,-44.6532,
3.0220,-0.0467,0.0336,1.0275,-0.1027,0.3063,-0.1064,0.0916,-0.0462,0.0036,18.4515,3.9058,-44.6532,
3.0230,-0.0467,0.0336,1.0275,-0.1027,0.3063,-0.1064,0.0916,-0.0462,0.0036,18.4333,3.7650,-44.7525,
3.0350,-0.0467,0.0336,1.0275,-0.1027,0.3063,-0.1064,0.1414,-0.0248,-0.0050,18.4333,3.7650,-44.7525,
3.0360,-0.0465,0.0504,1.0221,-0.1027,0.3063,-0.1064,0.1414,-0.0248,-0.0050,18.4333,3.7650,-44.7525,
3.0360,-0.0465,0.0504,1.0221,-0.0925,-0.2640,0.0670,0.1414,-0.0248,-0.0050,18.4333,3.7650,-44.7525,
3.0880,-0.0465,0.0504,1.0221,-0.0925,-0.2640,0.0670,0.1096,-0.0590,-0.0038,18.4333,3.7650,-44.7525,
3.0890,-0.0429,0.0599,1.0104,-0.0925,-0.2640,0.0670,0.1096,-0.0590,-0.0038,18.4333,3.7650,-44.7525,
3.0900,-0.0346,0.0676,1.0159,-0.0925,-0.2640,0.0670,0.1096,-0.0590,-0.0038,18.4333,3.7650,-44.7525,
3.0910,-0.0346,0.0676,1.0159,-0.0925,-0.2640,0.0670,0.1096,-0.0590,-0.0038,18.3126,3.5433,-44.7962,
3.1090,-0.0222,0.0695,1.0224,-0.0925,-0.2640,0.0670,0.1096,-0.0590,-0.0038,18.3126,3.5433,-44.7962,
3.1120,-0.0222,0.0695,1.0224,-0.0925,-0.2640,0.0670,0.0900,-0.0443,0.0084,18.3126,3.5433,-44.7962,
3.1130,-0.0139,0.0637,1.0133,-0.0925,-0.2640,0.0670,0.0900,-0.0443,0.0084,18.3126,3.5433,-44.7962,
3.1140,-0.0139,0.0637,1.0133,-0.0229,-0.1020,0.0022,0.0900,-0.0443,0.0084,18.3126,3.5433,-44.7962,
3.1540,-0.0139,0.0637,1.0133,-0.0229,-0.1020,0.0022,0.0265,-0.0489,-0.0026,18.3126,3.5433,-44.7962,
3.1550,-0.0182,0.0631,1.0142,-0.0229,-0.1020,0.0022,0.0265,-0.0489,-0.0026,18.3126,3.5433,-44.7962,
3.1560,-0.0226,0.0629,1.0283,-0.0229,-0.1020,0.0022,0.0265,-0.0489,-0.0026,18.3126,3.5433,-44.7962,
3.1570,-0.0226,0.0629,1.0283,-0.0229,-0.1020,0.0022,0.0265,-0.0489,-0.0026,18.2137,3.2736,-44.8422,
3.1720,-0.0159,0.0500,1.0301,-0.0229,-0.1020,0.0022,0.0265,-0.0489,-0.0026,18.2137,3.2736,-44.8422,
3.1720,-0.0159,0.0500,1.0301,0.1120,0.1392,-0.0450,0.0265,-0.0489,-0.0026,18.2137,3.2736,-44.8422,
3.2210,-0.0126,0.0396,1.0256,0.1120,0.1392,-0.0450,0.0265,-0.0489,-0.0026,18.2137,3.2736,-44.8422,
3.2220,-0.0224,0.0530,1.0315,0.1120,0.1392,-0.0450,0.0265,-0.0489,-0.0026,18.2137,3.2736,-44.8422,
3.2220,-0.0224,0.0530,1.0315,0.1120,0.1392,-0.0450,0.0265,-0.0489,-0.0026,18.1510,3.0177,-44.8089,
3.2230,-0.0224,0.0530,1.0315,0.1120,0.1392,-0.0450,-0.0019,-0.0120,0.0265,18.1510,3.0177,-44.8089,
3.2430,-0.0224,0.0530,1.0315,0.1120,0.1392,-0.0450,0.0039,0.0381,0.0604,18.1510,3.0177,-44.8089,
3.2440,-0.0222,0.0557,1.0205,0.1120,0.1392,-0.0450,0.0039,0.0381,0.0604,18.1510,3.0177,-44.8089,
3.2490,-0.0171,0.0537,1.0168,0.1120,0.1392,-0.0450,0.0039,0.0381,0.0604,18.1510,3.0177,-44.8089,
3.2500,-0.0171,0.0537,1.0168,0.1900,0.0227,0.0161,0.0039,0.0381,0.0604,18.1510,3.0177,-44.8089,
3.2880,-0.0239,0.0593,1.0104,0.1900,0.0227,0.0161,0.0039,0.0381,0.0604,18.1510,3.0177,-44.8089,
3.2890,-0.0239,0.0593,1.0104,0.1900,0.0227,0.0161,0.0415,0.0189,0.0601,18.1510,3.0177,-44.8089,
3.2900,-0.0357,0.0686,1.0186,0.1900,0.0227,0.0161,0.0415,0.0189,0.0601,18.1510,3.0177,-44.8089,
3.2900,-0.0357,0.0686,1.0186,0.1900,0.0227,0.0161,0.0415,0.0189,0.0601,18.0741,2.6996,-44.8699,
3.3090,-0.0357,0.0686,1.0186,0.1900,0.0227,0.0161,-0.0007,-0.0227,0.0320,18.0741,2.6996,-44.8699,
3.3100,-0.0327,0.0656,1.0196,0.1900,0.0227,0.0161,-0.0007,-0.0227,0.0320,18.0741,2.6996,-44.8699,
3.3100,-0.0327,0.0656,1.0196,0.1443,-0.0179,0.0419,-0.0007,-0.0227,0.0320,18.0741,2.6996,-44.8699,
3.3560,-0.0332,0.0627,1.0111,0.1443,-0.0179,0.0419,-0.0007,-0.0227,0.0320,18.0741,2.6996,-44.8699,
3.3580,-0.0332,0.0627,1.0111,0.1443,-0.0179,0.0419,-0.0007,-0.0227,0.0320,18.0044,2.5300,-44.8829,
3.3580,-0.0332,0.0627,1.0111,0.1443,-0.0179,0.0419,-0.0199,-0.0132,0.0106,18.0044,2.5300,-44.8829,
3.3590,-0.0388,0.0633,1.0163,0.1443,-0.0179,0.0419,-0.0199,-0.0132,0.0106,18.0044,2.5300,-44.8829,
3.3760,-0.0397,0.0583,1.0173,0.1443,-0.0179,0.0419,-0.0199,-0.0132,0.0106,18.0044,2.5300,-44.8829,
3.3870,-0.0397,0.0583,1.0173,0.1443,-0.0179,0.0419,-0.0596,0.0067,-0.0212,18.0044,2.5300,-44.8829,
3.3880,-0.0470,0.0528,1.0117,0.1443,-0.0179,0.0419,-0.0596,0.0067,-0.0212,18.0044,2.5300,-44.8829,
3.3880,-0.0470,0.0528,1.0117,0.0274,0.1164,-0.0506,-0.0596,0.0067,-0.0212,18.0044,2.5300,-44.8829,
3.4210,-0.0500,0.0489,1.0210,0.0274,0.1164,-0.0506,-0.0596,0.0067,-0.0212,18.0044,2.5300,-44.8829,
3.4220,-0.0500,0.0489,1.0210,0.0274,0.1164,-0.0506,-0.0596,0.0067,-0.0212,17.9375,2.4200,-44.8664,
3.4440,-0.0370,0.0497,1.0266,0.0274,0.1164,-0.0506,-0.0596,0.0067,-0.0212,17.9375,2.4200,-44.8664,
3.4460,-0.0370,0.0497,1.0266,0.0274,0.1164,-0.0506,-0.0657,-0.0049,-0.0307,17.9375,2.4200,-44.8664,
3.4470,-0.0238,0.0446,1.0155,0.0274,0.1164,-0.0506,-0.0657,-0.0049,-0.0307,17.9375,2.4200,-44.8664,
3.4480,-0.0238,0.0446,1.0155,-0.0583,0.0914,-0.0555,-0.0657,-0.0049,-0.0307,17.9375,2.4200,-44.8664,
3.4900,-0.0235,0.0485,1.0151,-0.0583,0.0914,-0.0555,-0.0657,-0.0049,-0.0307,17.9375,2.4200,-44.8664,
3.4910,-0.0235,0.0485,1.0151,-0.0583,0.0914,-0.0555,-0.0526,0.0100,-0.0288,17.9375,2.4200,-44.8664,
3.4920,-0.0247,0.0599,1.0180,-0.0583,0.0914,-0.0555,-0.0526,0.0100,-0.0288,17.9375,2.4200,-44.8664,
3.4930,-0.0247,0.0599,1.0180,-0.0583,0.0914,-0.0555,-0.0526,0.0100,-0.0288,17.9579,2.3312,-44.9226,
3.5100,-0.0200,0.0675,1.0199,-0.0583,0.0914,-0.0555,-0.0526,0.0100,-0.0288,17.9579,2.3312,-44.9226,
3.5120,-0.0200,0.0675,1.0199,-0.0583,0.0914,-0.0555,-0.1335,0.0494,-0.0441,17.9579,2.3312,-44.9226,
3.5220,-0.0200,0.0675,1.0199,0.0340,0.0667,-0.0025,-0.1335,0.0494,-0.0441,17.9579,2.3312,-44.9226,
3.5230,-0.0159,0.0603,1.0118,0.0340,0.0667,-0.0025,-0.1335,0.0494,-0.0441,17.9579,2.3312,-44.9226,
3.5540,-0.0211,0.0351,1.0307,0.0340,0.0667,-0.0025,-0.1335,0.0494,-0.0441,17.9579,2.3312,-44.9226,
3.5570,-0.0211,0.0351,1.0307,0.0340,0.0667,-0.0025,-0.1335,0.0494,-0.0441,18.0052,2.3039,-44.9226,
3.5570,-0.0211,0.0351,1.0307,0.0340,0.0667,-0.0025,-0.1757,0.0913,-0.0264,18.0052,2.3039,-44.9226,
3.5760,-0.0285,0.0129,1.0158,0.0340,0.0667,-0.0025,-0.1757,0.0913,-0.0264,18.0052,2.3039,-44.9226,
3.5800,-0.0408,-0.0003,1.0472,0.0340,0.0667,-0.0025,-0.1757,0.0913,-0.0264,18.0052,2.3039,-44.9226,
3.5810,-0.0408,-0.0003,1.0472,0.0340,0.0667,-0.0025,-0.2041,0.1188,-0.0175,18.0052,2.3039,-44.9226,
3.5810,-0.0408,-0.0003,1.0472,0.2183,0.2863,-0.0364,-0.2041,0.1188,-0.0175,18.0052,2.3039,-44.9226,
3.6210,-0.0399,-0.0162,1.0410,0.2183,0.2863,-0.0364,-0.2041,0.1188,-0.0175,18.0052,2.3039,-44.9226,
3.6230,-0.0399,-0.0162,1.0410,0.2183,0.2863,-0.0364,-0.0434,0.0687,0.0029,18.0052,2.3039,-44.9226,
3.6230,-0.0349,-0.0190,1.0318,0.2183,0.2863,-0.0364,-0.0434,0.0687,0.0029,18.0052,2.3039,-44.9226,
3.6240,-0.0349,-0.0190,1.0318,0.2183,0.2863,-0.0364,-0.0434,0.0687,0.0029,18.1802,2.3896,-44.9240,
3.6420,-0.0397,0.0074,1.0305,0.2183,0.2863,-0.0364,-0.0434,0.0687,0.0029,18.1802,2.3896,-44.9240,
3.6590,-0.0500,0.0374,1.0153,0.2183,0.2863,-0.0364,-0.0434,0.0687,0.0029,18.1802,2.3896,-44.9240,
3.6600,-0.0500,0.0374,1.0153,0.2183,0.2863,-0.0364,0.0335,0.0519,0.0173,18.1802,2.3896,-44.9240,
3.6610,-0.0500,0.0374,1.0153,0.1333,-0.1797,0.1143,0.0335,0.0519,0.0173,18.1802,2.3896,-44.9240,
3.6880,-0.0570,0.0466,1.0236,0.1333,-0.1797,0.1143,0.0335,0.0519,0.0173,18.1802,2.3896,-44.9240,
3.6890,-0.0570,0.0466,1.0236,0.1333,-0.1797,0.1143,0.0335,0.0519,0.0173,18.3202,2.5253,-44.8464,
3.7090,-0.0584,0.0451,1.0225,0.1333,-0.1797,0.1143,0.0335,0.0519,0.0173,18.3202,2.5253,-44.8464,
3.7110,-0.0584,0.0451,1.0225,0.1333,-0.1797,0.1143,-0.0193,-0.0242,0.0222,18.3202,2.5253,-44.8464,
3.7180,-0.0584,0.0451,1.0225,0.0215,-0.1989,0.0542,-0.0193,-0.0242,0.0222,18.3202,2.5253,-44.8464,
3.7180,-0.0546,0.0422,1.0104,0.0215,-0.1989,0.0542,-0.0193,-0.0242,0.0222,18.3202,2.5253,-44.8464,
3.7540,-0.0546,0.0422,1.0104,0.0215,-0.1989,0.0542,-0.0645,-0.0178,0.0014,18.3202,2.5253,-44.8464,
3.7560,-0.0497,0.0342,1.0145,0.0215,-0.1989,0.0542,-0.0645,-0.0178,0.0014,18.3202,2.5253,-44.8464,
3.7570,-0.0497,0.0342,1.0145,0.0215,-0.1989,0.0542,-0.0645,-0.0178,0.0014,18.4739,2.6799,-44.8057,
3.7760,-0.0459,0.0252,1.0244,0.0215,-0.1989,0.0542,-0.0645,-0.0178,0.0014,18.4739,2.6799,-44.8057,
3.7770,-0.0407,0.0152,1.0244,0.0215,-0.1989,0.0542,-0.0645,-0.0178,0.0014,18.4739,2.6799,-44.8057,
3.7780,-0.0407,0.0152,1.0244,0.0215,-0.1989,0.0542,-0.0706,-0.0132,-0.0151,18.4739,2.6799,-44.8057,
3.7950,-0.0419,0.0090,1.0256,0.0215,-0.1989,0.0542,-0.0706,-0.0132,-0.0151,18.4739,2.6799,-44.8057,
3.7960,-0.0419,0.0090,1.0256,-0.1134,0.2022,-0.0387,-0.0706,-0.0132,-0.0151,18.4739,2.6799,-44.8057,
3.8210,-0.0419,0.0090,1.0256,-0.1134,0.2022,-0.0387,-0.0379,-0.0013,-0.0371,18.4739,2.6799,-44.8057,
3.8220,-0.0529,0.0085,1.0355,-0.1134,0.2022,-0.0387,-0.0379,-0.0013,-0.0371,18.4739,2.6799,-44.8057,
3.8230,-0.0529,0.0085,1.0355,-0.1134,0.2022,-0.0387,-0.0379,-0.0013,-0.0371,18.5714,2.9197,-44.7746,
3.8420,-0.0555,0.0104,1.0148,-0.1134,0.2022,-0.0387,-0.0379,-0.0013,-0.0371,18.5714,2.9197,-44.7746,
3.8550,-0.0603,0.0103,1.0235,-0.1134,0.2022,-0.0387,-0.0379,-0.0013,-0.0371,18.5714,2.9197,-44.7746,
3.8560,-0.0603,0.0103,1.0235,0.0112,-0.0323,0.0169,-0.0379,-0.0013,-0.0371,18.5714,2.9197,-44.7746,
3.8570,-0.0603,0.0103,1.0235,0.0112,-0.0323,0.0169,-0.0013,0.0299,-0.0264,18.5714,2.9197,-44.7746,
3.8880,-0.0528,0.0169,1.0156,0.0112,-0.0323,0.0169,-0.0013,0.0299,-0.0264,18.5714,2.9197,-44.7746,
3.8890,-0.0528,0.0169,1.0156,0.0112,-0.0323,0.0169,-0.0013,0.0299,-0.0264,18.6194,3.1590,-44.6938,
3.9090,-0.0463,0.0239,1.0240,0.0112,-0.0323,0.0169,-0.0013,0.0299,-0.0264,18.6194,3.1590,-44.6938,
3.9110,-0.0463,0.0239,1.0240,0.0112,-0.0323,0.0169,-0.0010,-0.0126,-0.0126,18.6194,3.1590,-44.6938,
3.9320,-0.0463,0.0239,1.0240,0.0112,-0.0323,0.0169,-0.0175,-0.0107,-0.0099,18.6194,3.1590,-44.6938,
3.9330,-0.0386,0.0240,1.0221,0.0112,-0.0323,0.0169,-0.0175,-0.0107,-0.0099,18.6194,3.1590,-44.6938,
3.9340,-0.0326,0.0215,1.0262,0.0112,-0.0323,0.0169,-0.0175,-0.0107,-0.0099,18.6194,3.1590,-44.6938,
3.9340,-0.0326,0.0215,1.0262,-0.1028,-0.0926,0.0065,-0.0175,-0.0107,-0.0099,18.6194,3.1590,-44.6938,
3.9540,-0.0326,0.0215,1.0262,-0.1028,-0.0926,0.0065,-0.0175,-0.0107,-0.0099,18.6543,3.3781,-44.6147,
3.9560,-0.0330,0.0188,1.0221,-0.1028,-0.0926,0.0065,-0.0175,-0.0107,-0.0099,18.6543,3.3781,-44.6147,
3.9750,-0.0376,0.0190,1.0179,-0.1028,-0.0926,0.0065,-0.0175,-0.0107,-0.0099,18.6543,3.3781,-44.6147,
3.9770,-0.0376,0.0190,1.0179,-0.1028,-0.0926,0.0065,-0.0303,-0.0165,-0.0139,18.6543,3.3781,-44.6147,
3.9910,-0.0376,0.0190,1.0179,0.0371,0.0405,0.0109,-0.0303,-0.0165,-0.0139,18.6543,3.3781,-44.6147,
3.9920,-0.0429,0.0184,1.0302,0.0371,0.0405,0.0109,-0.0303,-0.0165,-0.0139,18.6543,3.3781,-44.6147,
4.0210,-0.0429,0.0184,1.0302,0.0371,0.0405,0.0109,-0.0162,0.0003,-0.0062,18.6543,3.3781,-44.6147,
4.0220,-0.0465,0.0163,1.0194,0.0371,0.0405,0.0109,-0.0162,0.0003,-0.0062,18.6543,3.3781,-44.6147,
4.0220,-0.0465,0.0163,1.0194,0.0371,0.0405,0.0109,-0.0162,0.0003,-0.0062,18.6870,3.5469,-44.5773,
4.0420,-0.0494,0.0164,1.0216,0.0371,0.0405,0.0109,-0.0162,0.0003,-0.0062,18.6870,3.5469,-44.5773,
4.0690,-0.0494,0.0164,1.0216,0.0462,-0.0012,0.0060,-0.0162,0.0003,-0.0062,18.6870,3.5469,-44.5773,
4.0710,-0.0494,0.0164,1.0216,0.0462,-0.0012,0.0060,-0.0022,-0.0052,0.0033,18.6870,3.5469,-44.5773,
4.0710,-0.0503,0.0174,1.0252,0.0462,-0.0012,0.0060,-0.0022,-0.0052,0.0033,18.6870,3.5469,-44.5773,
4.0720,-0.0489,0.0177,1.0230,0.0462,-0.0012,0.0060,-0.0022,-0.0052,0.0033,18.6870,3.5469,-44.5773,
4.0890,-0.0489,0.0177,1.0230,0.0462,-0.0012,0.0060,0.0042,-0.0007,0.0118,18.6870,3.5469,-44.5773,
4.0900,-0.0489,0.0177,1.0230,0.0462,-0.0012,0.0060,0.0042,-0.0007,0.0118,18.7635,3.6307,-44.5052,
4.1090,-0.0502,0.0190,1.0195,0.0462,-0.0012,0.0060,0.0042,-0.0007,0.0118,18.7635,3.6307,-44.5052,
4.1110,-0.0484,0.0197,1.0223,0.0462,-0.0012,0.0060,0.0042,-0.0007,0.0118,18.7635,3.6307,-44.5052,
4.1280,-0.0440,0.0153,1.0266,0.0462,-0.0012,0.0060,0.0042,-0.0007,0.0118,18.7635,3.6307,-44.5052,
4.1290,-0.0440,0.0153,1.0266,-0.0526,-0.0123,0.0009,0.0042,-0.0007,0.0118,18.7635,3.6307,-44.5052,
4.1300,-0.0440,0.0153,1.0266,-0.0526,-0.0123,0.0009,0.0003,-0.0104,0.0078,18.7635,3.6307,-44.5052,
4.1550,-0.0404,0.0132,1.0219,-0.0526,-0.0123,0.0009,0.0003,-0.0104,0.0078,18.7635,3.6307,-44.5052,
4.1560,-0.0404,0.0132,1.0219,-0.0526,-0.0123,0.0009,0.0003,-0.0104,0.0078,18.7185,3.6969,-44.5155,
4.1770,-0.0404,0.0132,1.0219,-0.0526,-0.0123,0.0009,-0.0132,0.0051,-0.0032,18.7185,3.6969,-44.5155,
4.1790,-0.0428,0.0160,1.0268,-0.0526,-0.0123,0.0009,-0.0132,0.0051,-0.0032,18.7185,3.6969,-44.5155,
4.2060,-0.0428,0.0160,1.0268,-0.0180,-0.0221,0.0040,-0.0132,0.0051,-0.0032,18.7185,3.6969,-44.5155,
4.2080,-0.0428,0.0160,1.0268,-0.0180,-0.0221,0.0040,0.0479,0.0070,-0.0007,18.7185,3.6969,-44.5155,
4.2080,-0.0439,0.0148,1.0225,-0.0180,-0.0221,0.0040,0.0479,0.0070,-0.0007,18.7185,3.6969,-44.5155,
4.2100,-0.0469,0.0101,1.0024,-0.0180,-0.0221,0.0040,0.0479,0.0070,-0.0007,18.7185,3.6969,-44.5155,
4.2220,-0.0469,0.0101,1.0024,-0.0180,-0.0221,0.0040,0.0479,0.0070,-0.0007,18.6977,3.7645,-44.5120,
4.2440,-0.0492,0.0179,1.0184,-0.0180,-0.0221,0.0040,0.0479,0.0070,-0.0007,18.6977,3.7645,-44.5120,
4.2650,-0.0492,0.0179,1.0184,-0.0180,-0.0221,0.0040,-0.0398,-0.0095,-0.0068,18.6977,3.7645,-44.5120,
4.2660,-0.0480,0.0186,1.0361,-0.0180,-0.0221,0.0040,-0.0398,-0.0095,-0.0068,18.6977,3.7645,-44.5120,
4.2670,-0.0480,0.0186,1.0361,-0.0080,-0.0391,-0.0417,-0.0398,-0.0095,-0.0068,18.6977,3.7645,-44.5120,
4.2680,-0.0410,0.0153,1.0221,-0.0080,-0.0391,-0.0417,-0.0398,-0.0095,-0.0068,18.6977,3.7645,-44.5120,
4.2890,-0.0410,0.0153,1.0221,-0.0080,-0.0391,-0.0417,0.0027,-0.0376,-0.0047,18.6977,3.7645,-44.5120,
4.2900,-0.0346,0.0157,1.0262,-0.0080,-0.0391,-0.0417,0.0027,-0.0376,-0.0047,18.6977,3.7645,-44.5120,
4.2910,-0.0346,0.0157,1.0262,-0.0080,-0.0391,-0.0417,0.0027,-0.0376,-0.0047,18.6895,3.8315,-44.5467,
4.3100,-0.0331,0.0159,1.0286,-0.0080,-0.0391,-0.0417,0.0027,-0.0376,-0.0047,18.6895,3.8315,-44.5467,
4.3460,-0.0314,0.0166,1.0245,-0.0080,-0.0391,-0.0417,0.0027,-0.0376,-0.0047,18.6895,3.8315,-44.5467,
4.3490,-0.0314,0.0166,1.0245,-0.0080,-0.0391,-0.0417,0.0012,0.0003,-0.0026,18.6895,3.8315,-44.5467,
4.3490,-0.0370,0.0175,1.0288,-0.0080,-0.0391,-0.0417,0.0012,0.0003,-0.0026,18.6895,3.8315,-44.5467,
4.3500,-0.0370,0.0175,1.0288,-0.0129,-0.0048,0.0261,0.0012,0.0003,-0.0026,18.6895,3.8315,-44.5467,
4.3540,-0.0370,0.0175,1.0288,-0.0129,-0.0048,0.0261,0.0012,0.0003,-0.0026,18.6879,3.8245,-44.4573,
4.3790,-0.0448,0.0188,1.0202,-0.0129,-0.0048,0.0261,0.0012,0.0003,-0.0026,18.6879,3.8245,-44.4573,
4.3810,-0.0448,0.0188,1.0202,-0.0129,-0.0048,0.0261,0.0039,-0.0028,-0.0026,18.6879,3.8245,-44.4573,
4.4010,-0.0485,0.0221,1.0202,-0.0129,-0.0048,0.0261,0.0039,-0.0028,-0.0026,18.6879,3.8245,-44.4573,
4.4020,-0.0479,0.0219,1.0225,-0.0129,-0.0048,0.0261,0.0039,-0.0028,-0.0026,18.6879,3.8245,-44.4573,
4.4030,-0.0479,0.0219,1.0225,-0.0129,-0.0048,0.0261,-0.0049,-0.0107,-0.0001,18.6879,3.8245,-44.4573,
4.4040,-0.0479,0.0219,1.0225,0.0751,-0.0074,0.0470,-0.0049,-0.0107,-0.0001,18.6879,3.8245,-44.4573,
4.4220,-0.0476,0.0182,1.0218,0.0751,-0.0074,0.0470,-0.0049,-0.0107,-0.0001,18.6879,3.8245,-44.4573,
4.4230,-0.0476,0.0182,1.0218,0.0751,-0.0074,0.0470,-0.0049,-0.0107,-0.0001,18.7023,3.8529,-44.5064,
4.4430,-0.0454,0.0158,1.0250,0.0751,-0.0074,0.0470,-0.0049,-0.0107,-0.0001,18.7023,3.8529,-44.5064,
4.4450,-0.0454,0.0158,1.0250,0.0751,-0.0074,0.0470,-0.0056,-0.0095,-0.0022,18.7023,3.8529,-44.5064,
4.4800,-0.0456,0.0154,1.0185,0.0751,-0.0074,0.0470,-0.0056,-0.0095,-0.0022,18.7023,3.8529,-44.5064,
4.4830,-0.0456,0.0154,1.0185,0.0751,-0.0074,0.0470,-0.0129,-0.0107,-0.0022,18.7023,3.8529,-44.5064,
4.4840,-0.0434,0.0162,1.0317,0.0751,-0.0074,0.0470,-0.0129,-0.0107,-0.0022,18.7023,3.8529,-44.5064,
4.4840,-0.0434,0.0162,1.0317,-0.0557,0.0348,-0.0188,-0.0129,-0.0107,-0.0022,18.7023,3.8529,-44.5064,
4.4890,-0.0434,0.0162,1.0317,-0.0557,0.0348,-0.0188,-0.0129,-0.0107,-0.0022,18.7385,3.8443,-44.5185,
4.5130,-0.0377,0.0185,1.0135,-0.0557,0.0348,-0.0188,-0.0129,-0.0107,-0.0022,18.7385,3.8443,-44.5185,
4.5380,-0.0377,0.0185,1.0135,-0.0557,0.0348,-0.0188,0.0070,0.0161,0.0011,18.7385,3.8443,-44.5185,
4.5400,-0.0377,0.0185,1.0135,-0.0290,-0.0120,0.0184,0.0070,0.0161,0.0011,18.7385,3.8443,-44.5185,
4.5410,-0.0456,0.0136,1.0280,-0.0290,-0.0120,0.0184,0.0070,0.0161,0.0011,18.7385,3.8443,-44.5185,
4.5420,-0.0413,0.0166,1.0222,-0.0290,-0.0120,0.0184,0.0070,0.0161,0.0011,18.7385,3.8443,-44.5185,
4.5550,-0.0413,0.0166,1.0222,-0.0290,-0.0120,0.0184,0.0070,0.0161,0.0011,18.7651,3.8842,-44.5279,
4.5770,-0.0391,0.0181,1.0234,-0.0290,-0.0120,0.0184,0.0070,0.0161,0.0011,18.7651,3.8842,-44.5279,
4.5780,-0.0349,0.0192,1.0239,-0.0290,-0.0120,0.0184,0.0070,0.0161,0.0011,18.7651,3.8842,-44.5279,
4.5780,-0.0349,0.0192,1.0239,-0.0290,-0.0120,0.0184,0.0057,-0.0110,-0.0016,18.7651,3.8842,-44.5279,
4.6180,-0.0349,0.0192,1.0239,0.0025,-0.0094,-0.0127,0.0057,-0.0110,-0.0016,18.7651,3.8842,-44.5279,
4.6200,-0.0349,0.0192,1.0239,0.0025,-0.0094,-0.0127,0.0012,-0.0114,-0.0013,18.7651,3.8842,-44.5279,
4.6200,-0.0318,0.0159,1.0291,0.0025,-0.0094,-0.0127,0.0012,-0.0114,-0.0013,18.7651,3.8842,-44.5279,
4.6210,-0.0374,0.0146,1.0238,0.0025,-0.0094,-0.0127,0.0012,-0.0114,-0.0013,18.7651,3.8842,-44.5279,
4.6210,-0.0374,0.0146,1.0238,0.0025,-0.0094,-0.0127,0.0012,-0.0114,-0.0013,18.6963,3.9477,-44.5906,
4.6430,-0.0415,0.0176,1.0184,0.0025,-0.0094,-0.0127,0.0012,-0.0114,-0.0013,18.6963,3.9477,-44.5906,
4.6450,-0.0415,0.0176,1.0184,0.0025,-0.0094,-0.0127,-0.0049,-0.0165,-0.0019,18.6963,3.9477,-44.5906,
4.6760,-0.0415,0.0176,1.0184,0.0025,-0.0094,-0.0127,-0.0034,-0.0068,0.0005,18.6963,3.9477,-44.5906,
4.6780,-0.0413,0.0186,1.0313,0.0025,-0.0094,-0.0127,-0.0034,-0.0068,0.0005,18.6963,3.9477,-44.5906,
4.6780,-0.0387,0.0173,1.0211,0.0025,-0.0094,-0.0127,-0.0034,-0.0068,0.0005,18.6963,3.9477,-44.5906,
4.6790,-0.0387,0.0173,1.0211,0.0465,-0.0022,0.0209,-0.0034,-0.0068,0.0005,18.6963,3.9477,-44.5906,
4.6880,-0.0387,0.0173,1.0211,0.0465,-0.0022,0.0209,-0.0034,-0.0068,0.0005,18.6615,3.9861,-44.5638,
4.7100,-0.0404,0.0166,1.0213,0.0465,-0.0022,0.0209,-0.0034,-0.0068,0.0005,18.6615,3.9861,-44.5638,
4.7520,-0.0419,0.0176,1.0262,0.0465,-0.0022,0.0209,-0.0034,-0.0068,0.0005,18.6615,3.9861,-44.5638,
4.7540,-0.0419,0.0176,1.0262,-0.0062,0.0008,-0.0025,-0.0034,-0.0068,0.0005,18.6615,3.9861,-44.5638,
4.7540,-0.0424,0.0181,1.0216,-0.0062,0.0008,-0.0025,-0.0034,-0.0068,0.0005,18.6615,3.9861,-44.5638,
4.7550,-0.0434,0.0185,1.0212,-0.0062,0.0008,-0.0025,-0.0034,-0.0068,0.0005,18.6615,3.9861,-44.5638,
4.7560,-0.0434,0.0185,1.0212,-0.0062,0.0008,-0.0025,0.0079,-0.0056,-0.0019,18.6615,3.9861,-44.5638,
4.7560,-0.0434,0.0185,1.0212,-0.0062,0.0008,-0.0025,0.0085,-0.0046,-0.0022,18.6615,3.9861,-44.5638,
4.7570,-0.0434,0.0185,1.0212,-0.0062,0.0008,-0.0025,0.0085,-0.0046,-0.0022,18.6391,4.0133,-44.6014,
4.7780,-0.0432,0.0176,1.0247,-0.0062,0.0008,-0.0025,0.0085,-0.0046,-0.0022,18.6391,4.0133,-44.6014,
4.8120,-0.0432,0.0176,1.0247,-0.0062,0.0008,-0.0025,0.0051,-0.0123,-0.0016,18.6391,4.0133,-44.6014,
4.8130,-0.0406,0.0193,1.0234,-0.0062,0.0008,-0.0025,0.0051,-0.0123,-0.0016,18.6391,4.0133,-44.6014,
4.8140,-0.0388,0.0187,1.0266,-0.0062,0.0008,-0.0025,0.0051,-0.0123,-0.0016,18.6391,4.0133,-44.6014,
4.8150,-0.0388,0.0187,1.0266,-0.0303,-0.0017,0.0000,0.0051,-0.0123,-0.0016,18.6391,4.0133,-44.6014,
4.8210,-0.0388,0.0187,1.0266,-0.0303,-0.0017,0.0000,0.0051,-0.0123,-0.0016,18.6271,4.0124,-44.6147,
4.8430,-0.0377,0.0170,1.0260,-0.0303,-0.0017,0.0000,0.0051,-0.0123,-0.0016,18.6271,4.0124,-44.6147,
4.8450,-0.0377,0.0170,1.0260,-0.0303,-0.0017,0.0000,0.0054,-0.0114,-0.0019,18.6271,4.0124,-44.6147,
4.8910,-0.0390,0.0174,1.0179,-0.0303,-0.0017,0.0000,0.0054,-0.0114,-0.0019,18.6271,4.0124,-44.6147,
4.8920,-0.0390,0.0174,1.0179,-0.0303,-0.0017,0.0000,0.0057,-0.0068,-0.0026,18.6271,4.0124,-44.6147,
4.8930,-0.0390,0.0174,1.0179,-0.0303,-0.0017,0.0000,0.0057,-0.0068,-0.0026,18.5683,4.0375,-44.6666,
4.8940,-0.0381,0.0179,1.0239,-0.0303,-0.0017,0.0000,0.0057,-0.0068,-0.0026,18.5683,4.0375,-44.6666,
4.8950,-0.0325,0.0180,1.0264,-0.0303,-0.0017,0.0000,0.0057,-0.0068,-0.0026,18.5683,4.0375,-44.6666,
4.8950,-0.0325,0.0180,1.0264,-0.0186,0.0005,0.0183,0.0057,-0.0068,-0.0026,18.5683,4.0375,-44.6666,
4.9100,-0.0325,0.0180,1.0264,-0.0186,0.0005,0.0183,-0.0059,-0.0144,-0.0022,18.5683,4.0375,-44.6666,
4.9110,-0.0324,0.0204,1.0181,-0.0186,0.0005,0.0183,-0.0059,-0.0144,-0.0022,18.5683,4.0375,-44.6666,
4.9480,-0.0324,0.0204,1.0181,-0.0186,0.0005,0.0183,0.0308,0.0097,0.0005,18.5683,4.0375,-44.6666,
4.9490,-0.0353,0.0208,1.0244,-0.0186,0.0005,0.0183,0.0308,0.0097,0.0005,18.5683,4.0375,-44.6666,
4.9500,-0.0417,0.0154,1.0367,-0.0186,0.0005,0.0183,0.0308,0.0097,0.0005,18.5683,4.0375,-44.6666,
4.9500,-0.0417,0.0154,1.0367,0.0165,-0.0172,-0.0036,0.0308,0.0097,0.0005,18.5683,4.0375,-44.6666,
4.9540,-0.0417,0.0154,1.0367,0.0165,-0.0172,-0.0036,0.0308,0.0097,0.0005,18.5433,4.0156,-44.7074,
4.9770,-0.0380,0.0160,0.9951,0.0165,-0.0172,-0.0036,0.0308,0.0097,0.0005,18.5433,4.0156,-44.7074,
5.0220,-0.0413,0.0237,1.0222,0.0165,-0.0172,-0.0036,0.0308,0.0097,0.0005,18.5433,4.0156,-44.7074,
5.0230,-0.0413,0.0237,1.0222,0.0165,-0.0172,-0.0036,-0.0214,-0.0196,-0.0050,18.5433,4.0156,-44.7074,
5.0230,-0.0413,0.0237,1.0222,0.0165,-0.0172,-0.0036,-0.0214,-0.0196,-0.0050,18.4338,4.0103,-44.7244,
5.0240,-0.0414,0.0207,1.0337,0.0165,-0.0172,-0.0036,-0.0214,-0.0196,-0.0050,18.4338,4.0103,-44.7244,
5.0250,-0.0348,0.0143,1.0197,0.0165,-0.0172,-0.0036,-0.0214,-0.0196,-0.0050,18.4338,4.0103,-44.7244,
5.0250,-0.0348,0.0143,1.0197,0.0165,-0.0172,-0.0036,-0.0095,-0.0254,0.0008,18.4338,4.0103,-44.7244,
5.0260,-0.0348,0.0143,1.0197,0.0031,0.0032,-0.0094,-0.0095,-0.0254,0.0008,18.4338,4.0103,-44.7244,
5.0870,-0.0348,0.0143,1.0197,-0.0294,0.0190,-0.0252,-0.0095,-0.0254,0.0008,18.4338,4.0103,-44.7244,
5.0890,-0.0348,0.0143,1.0197,-0.0294,0.0190,-0.0252,-0.0092,-0.0285,-0.0050,18.4338,4.0103,-44.7244,
5.0900,-0.0334,0.0154,1.0274,-0.0294,0.0190,-0.0252,-0.0092,-0.0285,-0.0050,18.4338,4.0103,-44.7244,
5.0910,-0.0297,0.0166,1.0288,-0.0294,0.0190,-0.0252,-0.0092,-0.0285,-0.0050,18.4338,4.0103,-44.7244,
5.0920,-0.0269,0.0159,1.0285,-0.0294,0.0190,-0.0252,-0.0092,-0.0285,-0.0050,18.4338,4.0103,-44.7244,
5.0930,-0.0269,0.0159,1.0285,-0.0294,0.0190,-0.0252,-0.0092,-0.0285,-0.0050,18.3471,3.9987,-44.6639,
5.1110,-0.0307,0.0160,1.0269,-0.0294,0.0190,-0.0252,-0.0092,-0.0285,-0.0050,18.3471,3.9987,-44.6639,
5.1130,-0.0307,0.0160,1.0269,-0.0294,0.0190,-0.0252,-0.0074,-0.0031,-0.0022,18.3471,3.9987,-44.6639,
5.1560,-0.0307,0.0160,1.0269,-0.0294,0.0190,-0.0252,-0.0028,-0.0117,0.0008,18.3471,3.9987,-44.6639,
5.1570,-0.0395,0.0188,1.0188,-0.0294,0.0190,-0.0252,-0.0028,-0.0117,0.0008,18.3471,3.9987,-44.6639,
5.1570,-0.0426,0.0231,1.0196,-0.0294,0.0190,-0.0252,-0.0028,-0.0117,0.0008,18.3471,3.9987,-44.6639,
5.1580,-0.0426,0.0231,1.0196,-0.0294,0.0190,-0.0252,-0.0028,-0.0117,0.0008,18.3825,3.9921,-44.6117,
5.1630,-0.0426,0.0231,1.0196,0.0491,-0.0107,0.0485,-0.0028,-0.0117,0.0008,18.3825,3.9921,-44.6117,
5.1630,-0.0387,0.0224,1.0239,0.0491,-0.0107,0.0485,-0.0028,-0.0117,0.0008,18.3825,3.9921,-44.6117,
5.2230,-0.0387,0.0224,1.0239,0.0491,-0.0107,0.0485,-0.0104,-0.0043,0.0014,18.3825,3.9921,-44.6117,
5.2240,-0.0346,0.0174,1.0223,0.0491,-0.0107,0.0485,-0.0104,-0.0043,0.0014,18.3825,3.9921,-44.6117,
5.2250,-0.0326,0.0158,1.0258,0.0491,-0.0107,0.0485,-0.0104,-0.0043,0.0014,18.3825,3.9921,-44.6117,
5.2260,-0.0313,0.0168,1.0222,0.0491,-0.0107,0.0485,-0.0104,-0.0043,0.0014,18.3825,3.9921,-44.6117,
5.2270,-0.0313,0.0168,1.0222,0.0491,-0.0107,0.0485,-0.0169,-0.0040,0.0014,18.3825,3.9921,-44.6117,
5.2280,-0.0313,0.0168,1.0222,-0.0395,0.0423,-0.0231,-0.0169,-0.0040,0.0014,18.3825,3.9921,-44.6117,
5.2290,-0.0313,0.0168,1.0222,-0.0395,0.0423,-0.0231,-0.0169,-0.0040,0.0014,18.3318,3.9613,-44.5897,
5.2440,-0.0303,0.0186,1.0367,-0.0395,0.0423,-0.0231,-0.0169,-0.0040,0.0014,18.3318,3.9613,-44.5897,
5.2900,-0.0324,0.0163,1.0188,-0.0395,0.0423,-0.0231,-0.0169,-0.0040,0.0014,18.3318,3.9613,-44.5897,
5.2910,-0.0381,0.0120,1.0235,-0.0395,0.0423,-0.0231,-0.0169,-0.0040,0.0014,18.3318,3.9613,-44.5897,
5.2910,-0.0381,0.0120,1.0235,-0.0395,0.0423,-0.0231,-0.0056,0.0247,0.0017,18.3318,3.9613,-44.5897,
5.2920,-0.0381,0.0120,1.0235,-0.0395,0.0423,-0.0231,-0.0056,0.0247,0.0017,18.2698,3.9389,-44.5933,
5.3000,-0.0381,0.0120,1.0235,0.0330,0.0049,0.0173,-0.0056,0.0247,0.0017,18.2698,3.9389,-44.5933,
5.3000,-0.0357,0.0155,1.0228,0.0330,0.0049,0.0173,-0.0056,0.0247,0.0017,18.2698,3.9389,-44.5933,
5.3010,-0.0357,0.0155,1.0228,0.0330,0.0049,0.0173,0.0015,0.0070,-0.0001,18.2698,3.9389,-44.5933,
5.3570,-0.0357,0.0155,1.0228,0.0330,0.0049,0.0173,0.0030,0.0048,0.0042,18.2698,3.9389,-44.5933,
5.3580,-0.0357,0.0155,1.0228,0.0330,0.0049,0.0173,0.0030,0.0048,0.0042,18.2087,3.9366,-44.5827,
5.3590,-0.0324,0.0171,1.0212,0.0330,0.0049,0.0173,0.0030,0.0048,0.0042,18.2087,3.9366,-44.5827,
5.3600,-0.0290,0.0160,1.0269,0.0330,0.0049,0.0173,0.0030,0.0048,0.0042,18.2087,3.9366,-44.5827,
5.3600,-0.0307,0.0135,1.0274,0.0330,0.0049,0.0173,0.0030,0.0048,0.0042,18.2087,3.9366,-44.5827,
5.3610,-0.0307,0.0135,1.0274,0.0183,-0.0115,0.0022,0.0030,0.0048,0.0042,18.2087,3.9366,-44.5827,
5.3780,-0.0307,0.0135,1.0274,0.0183,-0.0115,0.0022,-0.0095,0.0125,0.0051,18.2087,3.9366,-44.5827,
5.3790,-0.0362,0.0141,1.0189,0.0183,-0.0115,0.0022,-0.0095,0.0125,0.0051,18.2087,3.9366,-44.5827,
5.4210,-0.0374,0.0179,1.0199,0.0183,-0.0115,0.0022,-0.0095,0.0125,0.0051,18.2087,3.9366,-44.5827,
5.4220,-0.0349,0.0198,1.0290,0.0183,-0.0115,0.0022,-0.0095,0.0125,0.0051,18.2087,3.9366,-44.5827,
5.4230,-0.0349,0.0198,1.0290,0.0183,-0.0115,0.0022,-0.0199,-0.0049,0.0026,18.2087,3.9366,-44.5827,
5.4230,-0.0349,0.0198,1.0290,0.0183,-0.0115,0.0022,-0.0199,-0.0049,0.0026,18.1716,3.9251,-44.5847,
5.4380,-0.0349,0.0198,1.0290,0.0448,-0.0018,0.0073,-0.0199,-0.0049,0.0026,18.1716,3.9251,-44.5847,
5.4400,-0.0359,0.0175,1.0227,0.0448,-0.0018,0.0073,-0.0199,-0.0049,0.0026,18.1716,3.9251,-44.5847,
5.4910,-0.0382,0.0155,1.0178,0.0448,-0.0018,0.0073,-0.0199,-0.0049,0.0026,18.1716,3.9251,-44.5847,
5.4930,-0.0382,0.0155,1.0178,0.0448,-0.0018,0.0073,0.0042,0.0091,0.0011,18.1716,3.9251,-44.5847,
5.4950,-0.0386,0.0162,1.0234,0.0448,-0.0018,0.0073,0.0042,0.0091,0.0011,18.1716,3.9251,-44.5847,
5.4950,-0.0386,0.0162,1.0234,0.0448,-0.0018,0.0073,0.0042,0.0091,0.0011,18.1598,3.9348,-44.5717,
5.4960,-0.0401,0.0165,1.0251,0.0448,-0.0018,0.0073,0.0042,0.0091,0.0011,18.1598,3.9348,-44.5717,
5.4970,-0.0401,0.0165,1.0251,0.0016,0.0199,-0.0061,0.0042,0.0091,0.0011,18.1598,3.9348,-44.5717,
5.4980,-0.0401,0.0165,1.0251,0.0016,0.0199,-0.0061,0.0027,0.0097,0.0011,18.1598,3.9348,-44.5717,
5.5550,-0.0406,0.0176,1.0222,0.0016,0.0199,-0.0061,0.0027,0.0097,0.0011,18.1598,3.9348,-44.5717,
5.5570,-0.0406,0.0176,1.0222,0.0016,0.0199,-0.0061,0.0036,0.0079,0.0020,18.1598,3.9348,-44.5717,
5.5580,-0.0391,0.0166,1.0244,0.0016,0.0199,-0.0061,0.0036,0.0079,0.0020,18.1598,3.9348,-44.5717,
5.5580,-0.0359,0.0168,1.0218,0.0016,0.0199,-0.0061,0.0036,0.0079,0.0020,18.1598,3.9348,-44.5717,
5.5590,-0.0359,0.0168,1.0218,0.0016,0.0199,-0.0061,0.0036,0.0079,0.0020,18.2456,3.9374,-44.6070,
5.5740,-0.0364,0.0164,1.0223,0.0016,0.0199,-0.0061,0.0036,0.0079,0.0020,18.2456,3.9374,-44.6070,
5.5760,-0.0364,0.0164,1.0223,0.0016,0.0199,-0.0061,0.0015,0.0085,0.0023,18.2456,3.9374,-44.6070,
5.5770,-0.0364,0.0164,1.0223,-0.0185,0.0014,-0.0128,0.0015,0.0085,0.0023,18.2456,3.9374,-44.6070,
5.6230,-0.0366,0.0152,1.0232,-0.0185,0.0014,-0.0128,0.0015,0.0085,0.0023,18.2456,3.9374,-44.6070,
5.6250,-0.0366,0.0152,1.0232,-0.0185,0.0014,-0.0128,-0.0007,0.0073,0.0011,18.2456,3.9374,-44.6070,
5.6250,-0.0362,0.0149,1.0229,-0.0185,0.0014,-0.0128,-0.0007,0.0073,0.0011,18.2456,3.9374,-44.6070,
5.6250,-0.0362,0.0149,1.0229,-0.0185,0.0014,-0.0128,-0.0007,0.0073,0.0011,18.1981,3.9655,-44.5813,
5.6290,-0.0360,0.0137,1.0246,-0.0185,0.0014,-0.0128,-0.0007,0.0073,0.0011,18.1981,3.9655,-44.5813,
5.6300,-0.0360,0.0137,1.0246,0.0010,0.0060,-0.0057,-0.0007,0.0073,0.0011,18.1981,3.9655,-44.5813,
5.6910,-0.0360,0.0137,1.0246,0.0010,0.0060,-0.0057,0.0042,0.0085,0.0008,18.1981,3.9655,-44.5813,
5.6930,-0.0360,0.0154,1.0241,0.0010,0.0060,-0.0057,0.0042,0.0085,0.0008,18.1981,3.9655,-44.5813,
5.6940,-0.0390,0.0163,1.0180,0.0010,0.0060,-0.0057,0.0042,0.0085,0.0008,18.1981,3.9655,-44.5813,
5.6940,-0.0390,0.0163,1.0180,0.0010,0.0060,-0.0057,0.0042,0.0085,0.0008,18.1243,3.9414,-44.6239,
5.7100,-0.0390,0.0163,1.0180,0.0010,0.0060,-0.0057,0.0054,0.0149,0.0020,18.1243,3.9414,-44.6239,
5.7110,-0.0403,0.0175,1.0240,0.0010,0.0060,-0.0057,0.0054,0.0149,0.0020,18.1243,3.9414,-44.6239,
5.7120,-0.0379,0.0174,1.0244,0.0010,0.0060,-0.0057,0.0054,0.0149,0.0020,18.1243,3.9414,-44.6239,
5.7120,-0.0379,0.0174,1.0244,0.0189,-0.0154,0.0052,0.0054,0.0149,0.0020,18.1243,3.9414,-44.6239,
5.7550,-0.0379,0.0174,1.0244,0.0189,-0.0154,0.0052,-0.0086,0.0051,0.0020,18.1243,3.9414,-44.6239,
5.7560,-0.0365,0.0176,1.0211,0.0189,-0.0154,0.0052,-0.0086,0.0051,0.0020,18.1243,3.9414,-44.6239,
5.7570,-0.0375,0.0196,1.0312,0.0189,-0.0154,0.0052,-0.0086,0.0051,0.0020,18.1243,3.9414,-44.6239,
5.7570,-0.0375,0.0196,1.0312,0.0189,-0.0154,0.0052,-0.0086,0.0051,0.0020,18.1387,3.9808,-44.6338,
5.7670,-0.0424,0.0142,1.0241,0.0189,-0.0154,0.0052,-0.0086,0.0051,0.0020,18.1387,3.9808,-44.6338,
5.7670,-0.0424,0.0142,1.0241,0.0189,-0.0154,0.0052,0.0219,0.0351,0.0063,18.1387,3.9808,-44.6338,
5.7680,-0.0424,0.0142,1.0241,0.0105,-0.0055,-0.0096,0.0219,0.0351,0.0063,18.1387,3.9808,-44.6338,
5.8230,-0.0424,0.0142,1.0241,0.0105,-0.0055,-0.0096,-0.0019,0.0009,-0.0004,18.1387,3.9808,-44.6338,
5.8250,-0.0424,0.0142,1.0241,0.0105,-0.0055,-0.0096,-0.0019,0.0009,-0.0004,18.1388,3.9918,-44.5945,
5.8270,-0.0469,0.0131,0.9998,0.0105,-0.0055,-0.0096,-0.0019,0.0009,-0.0004,18.1388,3.9918,-44.5945,
5.8280,-0.0479,0.0196,1.0203,0.0105,-0.0055,-0.0096,-0.0019,0.0009,-0.0004,18.1388,3.9918,-44.5945,
5.8430,-0.0443,0.0206,1.0307,0.0105,-0.0055,-0.0096,-0.0019,0.0009,-0.0004,18.1388,3.9918,-44.5945,
5.8450,-0.0359,0.0153,1.0155,0.0105,-0.0055,-0.0096,-0.0019,0.0009,-0.0004,18.1388,3.9918,-44.5945,
5.8460,-0.0359,0.0153,1.0155,0.0105,-0.0055,-0.0096,-0.0101,-0.0162,0.0026,18.1388,3.9918,-44.5945,
5.8480,-0.0359,0.0153,1.0155,-0.0076,-0.0008,0.0100,-0.0101,-0.0162,0.0026,18.1388,3.9918,-44.5945,
5.8890,-0.0326,0.0152,1.0272,-0.0076,-0.0008,0.0100,-0.0101,-0.0162,0.0026,18.1388,3.9918,-44.5945,
5.8910,-0.0326,0.0152,1.0272,-0.0076,-0.0008,0.0100,-0.0110,-0.0010,0.0026,18.1388,3.9918,-44.5945,
5.8910,-0.0321,0.0151,1.0295,-0.0076,-0.0008,0.0100,-0.0110,-0.0010,0.0026,18.1388,3.9918,-44.5945,
5.8920,-0.0321,0.0151,1.0295,-0.0076,-0.0008,0.0100,-0.0110,-0.0010,0.0026,18.1376,3.9726,-44.5829,
5.9040,-0.0321,0.0151,1.0295,-0.0317,0.0217,-0.0598,-0.0110,-0.0010,0.0026,18.1376,3.9726,-44.5829,
5.9050,-0.0315,0.0136,1.0238,-0.0317,0.0217,-0.0598,-0.0110,-0.0010,0.0026,18.1376,3.9726,-44.5829,
5.9560,-0.0369,0.0146,1.0262,-0.0317,0.0217,-0.0598,-0.0110,-0.0010,0.0026,18.1376,3.9726,-44.5829,
5.9570,-0.0369,0.0146,1.0262,-0.0317,0.0217,-0.0598,-0.0098,0.0152,0.0036,18.1376,3.9726,-44.5829,
5.9580,-0.0437,0.0175,1.0206,-0.0317,0.0217,-0.0598,-0.0098,0.0152,0.0036,18.1376,3.9726,-44.5829,
5.9590,-0.0437,0.0175,1.0206,-0.0317,0.0217,-0.0598,-0.0098,0.0152,0.0036,18.1496,3.9735,-44.5696,
5.9770,-0.0476,0.0208,1.0201,-0.0317,0.0217,-0.0598,-0.0098,0.0152,0.0036,18.1496,3.9735,-44.5696,
5.9790,-0.0476,0.0208,1.0201,-0.0317,0.0217,-0.0598,0.0042,0.0067,0.0042,18.1496,3.9735,-44.5696,
5.9810,-0.0442,0.0214,1.0217,-0.0317,0.0217,-0.0598,0.0042,0.0067,0.0042,18.1496,3.9735,-44.5696,
5.9830,-0.0442,0.0214,1.0217,0.0703,-0.0107,0.0364,0.0042,0.0067,0.0042,18.1496,3.9735,-44.5696,
6.0220,-0.0426,0.0177,1.0229,0.0703,-0.0107,0.0364,0.0042,0.0067,0.0042,18.1496,3.9735,-44.5696,
6.0230,-0.0426,0.0177,1.0229,0.0703,-0.0107,0.0364,-0.0110,0.0076,0.0039,18.1496,3.9735,-44.5696,
6.0230,-0.0426,0.0177,1.0229,0.0703,-0.0107,0.0364,-0.0110,0.0076,0.0039,18.1369,3.9742,-44.5315,
6.0240,-0.0454,0.0142,1.0233,0.0703,-0.0107,0.0364,-0.0110,0.0076,0.0039,18.1369,3.9742,-44.5315,
6.0400,-0.0454,0.0142,1.0233,-0.0392,0.0390,-0.0124,-0.0110,0.0076,0.0039,18.1369,3.9742,-44.5315,
6.0410,-0.0454,0.0142,1.0233,-0.0392,0.0390,-0.0124,-0.0120,-0.0049,0.0029,18.1369,3.9742,-44.5315,
6.0420,-0.0428,0.0137,1.0179,-0.0392,0.0390,-0.0124,-0.0120,-0.0049,0.0029,18.1369,3.9742,-44.5315,
6.0900,-0.0414,0.0149,1.0317,-0.0392,0.0390,-0.0124,-0.0120,-0.0049,0.0029,18.1369,3.9742,-44.5315,
6.0920,-0.0391,0.0135,1.0134,-0.0392,0.0390,-0.0124,-0.0120,-0.0049,0.0029,18.1369,3.9742,-44.5315,
6.0920,-0.0391,0.0135,1.0134,-0.0392,0.0390,-0.0124,-0.0107,0.0216,0.0054,18.1369,3.9742,-44.5315,
6.0930,-0.0391,0.0135,1.0134,-0.0392,0.0390,-0.0124,-0.0107,0.0216,0.0054,18.0762,3.9821,-44.5074,
6.1100,-0.0473,0.0118,1.0238,-0.0392,0.0390,-0.0124,-0.0107,0.0216,0.0054,18.0762,3.9821,-44.5074,
6.1180,-0.0473,0.0118,1.0238,-0.0170,0.0013,-0.0116,-0.0107,0.0216,0.0054,18.0762,3.9821,-44.5074,
6.1200,-0.0473,0.0118,1.0238,-0.0170,0.0013,-0.0116,-0.0004,0.0079,0.0033,18.0762,3.9821,-44.5074,
6.1200,-0.0404,0.0141,1.0202,-0.0170,0.0013,-0.0116,-0.0004,0.0079,0.0033,18.0762,3.9821,-44.5074,
6.1550,-0.0404,0.0141,1.0202,-0.0170,0.0013,-0.0116,-0.0004,0.0079,0.0033,18.0981,3.9337,-44.5225,
6.1570,-0.0382,0.0168,1.0250,-0.0170,0.0013,-0.0116,-0.0004,0.0079,0.0033,18.0981,3.9337,-44.5225,
6.1780,-0.0336,0.0141,1.0260,-0.0170,0.0013,-0.0116,-0.0004,0.0079,0.0033,18.0981,3.9337,-44.5225,
6.1810,-0.0336,0.0141,1.0260,-0.0170,0.0013,-0.0116,-0.0049,0.0003,0.0048,18.0981,3.9337,-44.5225,
6.1820,-0.0336,0.0141,1.0260,-0.0050,-0.0098,-0.0033,-0.0049,0.0003,0.0048,18.0981,3.9337,-44.5225,
6.1820,-0.0355,0.0120,1.0262,-0.0050,-0.0098,-0.0033,-0.0049,0.0003,0.0048,18.0981,3.9337,-44.5225,
6.2220,-0.0355,0.0120,1.0262,-0.0050,-0.0098,-0.0033,-0.0049,0.0003,0.0048,18.0973,3.9247,-44.4974,
6.2240,-0.0355,0.0120,1.0262,-0.0050,-0.0098,-0.0033,-0.0062,-0.0010,0.0039,18.0973,3.9247,-44.4974,
6.2250,-0.0410,0.0147,1.0238,-0.0050,-0.0098,-0.0033,-0.0062,-0.0010,0.0039,18.0973,3.9247,-44.4974,
6.2250,-0.0421,0.0176,1.0202,-0.0050,-0.0098,-0.0033,-0.0062,-0.0010,0.0039,18.0973,3.9247,-44.4974,
6.2440,-0.0421,0.0176,1.0202,-0.0050,-0.0098,-0.0033,-0.0132,0.0006,0.0026,18.0973,3.9247,-44.4974,
6.2460,-0.0424,0.0171,1.0229,-0.0050,-0.0098,-0.0033,-0.0132,0.0006,0.0026,18.0973,3.9247,-44.4974,
6.2550,-0.0424,0.0171,1.0229,0.0461,0.0037,0.0280,-0.0132,0.0006,0.0026,18.0973,3.9247,-44.4974,
6.2560,-0.0434,0.0155,1.0134,0.0461,0.0037,0.0280,-0.0132,0.0006,0.0026,18.0973,3.9247,-44.4974,
6.2900,-0.0434,0.0155,1.0134,0.0461,0.0037,0.0280,-0.0132,0.0006,0.0026,18.1456,3.9170,-44.4962,
6.2910,-0.0434,0.0155,1.0134,0.0461,0.0037,0.0280,-0.0089,0.0054,0.0023,18.1456,3.9170,-44.4962,
6.2920,-0.0452,0.0153,1.0252,0.0461,0.0037,0.0280,-0.0089,0.0054,0.0023,18.1456,3.9170,-44.4962,
6.3110,-0.0457,0.0149,1.0244,0.0461,0.0037,0.0280,-0.0089,0.0054,0.0023,18.1456,3.9170,-44.4962,
6.3130,-0.0459,0.0135,1.0218,0.0461,0.0037,0.0280,-0.0089,0.0054,0.0023,18.1456,3.9170,-44.4962,
6.3130,-0.0459,0.0135,1.0218,0.0461,0.0037,0.0280,-0.0016,-0.0013,0.0014,18.1456,3.9170,-44.4962,
6.3140,-0.0459,0.0135,1.0218,-0.0126,0.0268,-0.0336,-0.0016,-0.0013,0.0014,18.1456,3.9170,-44.4962,
6.3560,-0.0461,0.0125,1.0227,-0.0126,0.0268,-0.0336,-0.0016,-0.0013,0.0014,18.1456,3.9170,-44.4962,
6.3580,-0.0461,0.0125,1.0227,-0.0126,0.0268,-0.0336,-0.0001,-0.0086,0.0020,18.1456,3.9170,-44.4962,
6.3580,-0.0442,0.0121,1.0223,-0.0126,0.0268,-0.0336,-0.0001,-0.0086,0.0020,18.1456,3.9170,-44.4962,
6.3590,-0.0442,0.0121,1.0223,-0.0126,0.0268,-0.0336,-0.0001,-0.0086,0.0020,18.1458,3.9277,-44.4698,
6.3780,-0.0428,0.0130,1.0197,-0.0126,0.0268,-0.0336,-0.0001,-0.0086,0.0020,18.1458,3.9277,-44.4698,
6.3910,-0.0409,0.0144,1.0153,-0.0126,0.0268,-0.0336,-0.0001,-0.0086,0.0020,18.1458,3.9277,-44.4698,
6.3920,-0.0409,0.0144,1.0153,-0.0126,0.0268,-0.0336,0.0039,0.0033,0.0029,18.1458,3.9277,-44.4698,
6.3930,-0.0409,0.0144,1.0153,-0.0398,0.0023,0.0081,0.0039,0.0033,0.0029,18.1458,3.9277,-44.4698,
6.4220,-0.0409,0.0144,1.0153,-0.0398,0.0023,0.0081,0.0039,0.0033,0.0029,18.1954,3.9499,-44.4539,
6.4240,-0.0412,0.0151,1.0241,-0.0398,0.0023,0.0081,0.0039,0.0033,0.0029,18.1954,3.9499,-44.4539,
6.4430,-0.0380,0.0146,1.0263,-0.0398,0.0023,0.0081,0.0039,0.0033,0.0029,18.1954,3.9499,-44.4539,
6.4450,-0.0380,0.0146,1.0263,-0.0398,0.0023,0.0081,-0.0004,0.0003,0.0029,18.1954,3.9499,-44.4539,
6.4500,-0.0380,0.0146,1.0263,-0.0104,-0.0047,-0.0252,-0.0004,0.0003,0.0029,18.1954,3.9499,-44.4539,
6.4510,-0.0382,0.0137,1.0213,-0.0104,-0.0047,-0.0252,-0.0004,0.0003,0.0029,18.1954,3.9499,-44.4539,
6.4900,-0.0398,0.0146,1.0297,-0.0104,-0.0047,-0.0252,-0.0004,0.0003,0.0029,18.1954,3.9499,-44.4539,
6.4920,-0.0398,0.0146,1.0297,-0.0104,-0.0047,-0.0252,-0.0004,0.0003,0.0029,18.2452,3.9827,-44.4115,
6.4930,-0.0398,0.0146,1.0297,-0.0104,-0.0047,-0.0252,-0.0138,0.0158,0.0023,18.2452,3.9827,-44.4115,
6.5100,-0.0398,0.0146,1.0297,-0.0104,-0.0047,-0.0252,0.0494,0.0210,0.0026,18.2452,3.9827,-44.4115,
6.5120,-0.0419,0.0132,1.0184,-0.0104,-0.0047,-0.0252,0.0494,0.0210,0.0026,18.2452,3.9827,-44.4115,
6.5120,-0.0479,0.0094,1.0086,-0.0104,-0.0047,-0.0252,0.0494,0.0210,0.0026,18.2452,3.9827,-44.4115,
6.5280,-0.0479,0.0094,1.0086,0.0352,-0.0037,0.0207,0.0494,0.0210,0.0026,18.2452,3.9827,-44.4115,
6.5300,-0.0492,0.0148,1.0123,0.0352,-0.0037,0.0207,0.0494,0.0210,0.0026,18.2452,3.9827,-44.4115,
6.5550,-0.0469,0.0209,1.0385,0.0352,-0.0037,0.0207,0.0494,0.0210,0.0026,18.2452,3.9827,-44.4115,
6.5570,-0.0469,0.0209,1.0385,0.0352,-0.0037,0.0207,0.0494,0.0210,0.0026,18.2227,4.0103,-44.4363,
6.5600,-0.0469,0.0209,1.0385,0.0352,-0.0037,0.0207,-0.0278,0.0021,0.0002,18.2227,4.0103,-44.4363,
6.5760,-0.0414,0.0152,1.0133,0.0352,-0.0037,0.0207,-0.0278,0.0021,0.0002,18.2227,4.0103,-44.4363,
6.5860,-0.0352,0.0146,1.0195,0.0352,-0.0037,0.0207,-0.0278,0.0021,0.0002,18.2227,4.0103,-44.4363,
6.5880,-0.0352,0.0146,1.0195,0.0352,-0.0037,0.0207,0.0057,-0.0230,0.0017,18.2227,4.0103,-44.4363,
6.5880,-0.0352,0.0146,1.0195,-0.0311,-0.0143,-0.0610,0.0057,-0.0230,0.0017,18.2227,4.0103,-44.4363,
6.6220,-0.0352,0.0146,1.0195,-0.0311,-0.0143,-0.0610,0.0057,-0.0230,0.0017,18.2102,4.0105,-44.4110,
6.6240,-0.0380,0.0140,1.0297,-0.0311,-0.0143,-0.0610,0.0057,-0.0230,0.0017,18.2102,4.0105,-44.4110,
6.6440,-0.0370,0.0118,1.0214,-0.0311,-0.0143,-0.0610,0.0057,-0.0230,0.0017,18.2102,4.0105,-44.4110,
6.6450,-0.0370,0.0118,1.0214,-0.0311,-0.0143,-0.0610,-0.0016,0.0125,0.0048,18.2102,4.0105,-44.4110,
6.6650,-0.0406,0.0118,1.0277,-0.0311,-0.0143,-0.0610,-0.0016,0.0125,0.0048,18.2102,4.0105,-44.4110,
6.6670,-0.0447,0.0157,1.0253,-0.0311,-0.0143,-0.0610,-0.0016,0.0125,0.0048,18.2102,4.0105,-44.4110,
6.6680,-0.0447,0.0157,1.0253,-0.0311,-0.0143,-0.0610,-0.0022,0.0061,0.0023,18.2102,4.0105,-44.4110,
6.6680,-0.0447,0.0157,1.0253,0.0205,0.0202,0.0287,-0.0022,0.0061,0.0023,18.2102,4.0105,-44.4110,
6.6890,-0.0473,0.0192,1.0152,0.0205,0.0202,0.0287,-0.0022,0.0061,0.0023,18.2102,4.0105,-44.4110,
6.6910,-0.0473,0.0192,1.0152,0.0205,0.0202,0.0287,-0.0022,0.0061,0.0023,18.2867,4.0499,-44.5087,
6.7100,-0.0486,0.0188,1.0196,0.0205,0.0202,0.0287,-0.0022,0.0061,0.0023,18.2867,4.0499,-44.5087,
6.7120,-0.0486,0.0188,1.0196,0.0205,0.0202,0.0287,0.0027,0.0128,0.0005,18.2867,4.0499,-44.5087,
6.7240,-0.0486,0.0188,1.0196,0.0252,-0.0101,0.0257,0.0027,0.0128,0.0005,18.2867,4.0499,-44.5087,
6.7250,-0.0500,0.0148,1.0241,0.0252,-0.0101,0.0257,0.0027,0.0128,0.0005,18.2867,4.0499,-44.5087,
6.7560,-0.0500,0.0148,1.0241,0.0252,-0.0101,0.0257,0.0027,0.0128,0.0005,18.3497,4.0919,-44.5039,
6.7580,-0.0474,0.0130,1.0217,0.0252,-0.0101,0.0257,0.0027,0.0128,0.0005,18.3497,4.0919,-44.5039,
6.7600,-0.0474,0.0130,1.0217,0.0252,-0.0101,0.0257,-0.0077,0.0003,0.0008,18.3497,4.0919,-44.5039,
6.7770,-0.0470,0.0131,1.0174,0.0252,-0.0101,0.0257,-0.0077,0.0003,0.0008,18.3497,4.0919,-44.5039,
6.8030,-0.0470,0.0131,1.0174,-0.0398,0.0305,-0.0219,-0.0077,0.0003,0.0008,18.3497,4.0919,-44.5039,
6.8050,-0.0470,0.0131,1.0174,-0.0398,0.0305,-0.0219,-0.0071,0.0039,0.0020,18.3497,4.0919,-44.5039,
6.8050,-0.0447,0.0141,1.0330,-0.0398,0.0305,-0.0219,-0.0071,0.0039,0.0020,18.3497,4.0919,-44.5039,
6.8060,-0.0434,0.0129,1.0152,-0.0398,0.0305,-0.0219,-0.0071,0.0039,0.0020,18.3497,4.0919,-44.5039,
6.8220,-0.0454,0.0132,1.0148,-0.0398,0.0305,-0.0219,-0.0071,0.0039,0.0020,18.3497,4.0919,-44.5039,
6.8230,-0.0454,0.0132,1.0148,-0.0398,0.0305,-0.0219,-0.0040,0.0351,0.0033,18.3497,4.0919,-44.5039,
6.8240,-0.0454,0.0132,1.0148,-0.0398,0.0305,-0.0219,-0.0040,0.0351,0.0033,18.3484,4.0620,-44.5186,
6.8430,-0.0446,0.0130,1.0203,-0.0398,0.0305,-0.0219,-0.0040,0.0351,0.0033,18.3484,4.0620,-44.5186,
6.8600,-0.0446,0.0130,1.0203,-0.0398,0.0305,-0.0219,-0.0010,0.0045,-0.0019,18.3484,4.0620,-44.5186,
6.8610,-0.0458,0.0137,1.0251,-0.0398,0.0305,-0.0219,-0.0010,0.0045,-0.0019,18.3484,4.0620,-44.5186,
6.8620,-0.0458,0.0137,1.0251,-0.0010,-0.0059,-0.0018,-0.0010,0.0045,-0.0019,18.3484,4.0620,-44.5186,
6.8890,-0.0396,0.0124,1.0305,-0.0010,-0.0059,-0.0018,-0.0010,0.0045,-0.0019,18.3484,4.0620,-44.5186,
6.8910,-0.0396,0.0124,1.0305,-0.0010,-0.0059,-0.0018,-0.0010,0.0045,-0.0019,18.4488,4.1036,-44.5767,
6.9100,-0.0396,0.0124,1.0305,-0.0010,-0.0059,-0.0018,-0.0092,0.0079,0.0033,18.4488,4.1036,-44.5767,
6.9120,-0.0377,0.0118,1.0210,-0.0010,-0.0059,-0.0018,-0.0092,0.0079,0.0033,18.4488,4.1036,-44.5767,
6.9400,-0.0377,0.0118,1.0210,-0.0010,-0.0059,-0.0018,-0.0092,-0.0019,0.0005,18.4488,4.1036,-44.5767,
6.9420,-0.0458,0.0142,1.0224,-0.0010,-0.0059,-0.0018,-0.0092,-0.0019,0.0005,18.4488,4.1036,-44.5767,
6.9430,-0.0461,0.0162,1.0230,-0.0010,-0.0059,-0.0018,-0.0092,-0.0019,0.0005,18.4488,4.1036,-44.5767,
6.9430,-0.0461,0.0162,1.0230,0.0064,-0.0003,-0.0046,-0.0092,-0.0019,0.0005,18.4488,4.1036,-44.5767,
6.9560,-0.0461,0.0162,1.0230,0.0064,-0.0003,-0.0046,-0.0092,-0.0019,0.0005,18.5099,4.1059,-44.5873,
6.9780,-0.0478,0.0146,1.0245,0.0064,-0.0003,-0.0046,-0.0092,-0.0019,0.0005,18.5099,4.1059,-44.5873,
6.9800,-0.0483,0.0137,1.0152,0.0064,-0.0003,-0.0046,-0.0092,-0.0019,0.0005,18.5099,4.1059,-44.5873,
6.9810,-0.0483,0.0137,1.0152,0.0064,-0.0003,-0.0046,-0.0062,0.0070,0.0014,18.5099,4.1059,-44.5873,
6.9970,-0.0483,0.0137,1.0152,0.0266,0.0080,0.0117,-0.0062,0.0070,0.0014,18.5099,4.1059,-44.5873,
7.0000,-0.0485,0.0133,1.0216,0.0266,0.0080,0.0117,-0.0062,0.0070,0.0014,18.5099,4.1059,-44.5873,
7.0220,-0.0485,0.0133,1.0216,0.0266,0.0080,0.0117,-0.0022,-0.0049,-0.0019,18.5099,4.1059,-44.5873,
7.0230,-0.0487,0.0149,1.0191,0.0266,0.0080,0.0117,-0.0022,-0.0049,-0.0019,18.5099,4.1059,-44.5873,
7.0240,-0.0487,0.0149,1.0191,0.0266,0.0080,0.0117,-0.0022,-0.0049,-0.0019,18.5106,4.1043,-44.6388,
7.0430,-0.0506,0.0146,1.0211,0.0266,0.0080,0.0117,-0.0022,-0.0049,-0.0019,18.5106,4.1043,-44.6388,
7.0760,-0.0489,0.0122,1.0240,0.0266,0.0080,0.0117,-0.0022,-0.0049,-0.0019,18.5106,4.1043,-44.6388,
7.0780,-0.0480,0.0111,1.0216,0.0266,0.0080,0.0117,-0.0022,-0.0049,-0.0019,18.5106,4.1043,-44.6388,
7.0780,-0.0480,0.0111,1.0216,0.0266,0.0080,0.0117,-0.0001,-0.0062,-0.0010,18.5106,4.1043,-44.6388,
7.0790,-0.0480,0.0111,1.0216,-0.0274,0.0072,-0.0167,-0.0001,-0.0062,-0.0010,18.5106,4.1043,-44.6388,
7.0890,-0.0480,0.0111,1.0216,-0.0274,0.0072,-0.0167,-0.0001,-0.0062,-0.0010,18.5694,4.0792,-44.5869,
7.1110,-0.0480,0.0111,1.0216,-0.0274,0.0072,-0.0167,0.0061,-0.0025,0.0008,18.5694,4.0792,-44.5869,
7.1120,-0.0456,0.0131,1.0183,-0.0274,0.0072,-0.0167,0.0061,-0.0025,0.0008,18.5694,4.0792,-44.5869,
7.1340,-0.0426,0.0147,1.0249,-0.0274,0.0072,-0.0167,0.0061,-0.0025,0.0008,18.5694,4.0792,-44.5869,
7.1350,-0.0412,0.0141,1.0213,-0.0274,0.0072,-0.0167,0.0061,-0.0025,0.0008,18.5694,4.0792,-44.5869,
7.1360,-0.0412,0.0141,1.0213,-0.0274,0.0072,-0.0167,-0.0034,-0.0065,0.0011,18.5694,4.0792,-44.5869,
7.1360,-0.0412,0.0141,1.0213,-0.0386,-0.0001,-0.0020,-0.0034,-0.0065,0.0011,18.5694,4.0792,-44.5869,
7.1560,-0.0417,0.0133,1.0221,-0.0386,-0.0001,-0.0020,-0.0034,-0.0065,0.0011,18.5694,4.0792,-44.5869,
7.1570,-0.0417,0.0133,1.0221,-0.0386,-0.0001,-0.0020,-0.0034,-0.0065,0.0011,18.6420,4.0837,-44.5455,
7.1780,-0.0465,0.0138,1.0267,-0.0386,-0.0001,-0.0020,-0.0034,-0.0065,0.0011,18.6420,4.0837,-44.5455,
7.1790,-0.0465,0.0138,1.0267,-0.0386,-0.0001,-0.0020,-0.0080,0.0140,0.0014,18.6420,4.0837,-44.5455,
7.2110,-0.0497,0.0098,1.0333,-0.0386,-0.0001,-0.0020,-0.0080,0.0140,0.0014,18.6420,4.0837,-44.5455,
7.2130,-0.0518,0.0119,0.9899,-0.0386,-0.0001,-0.0020,-0.0080,0.0140,0.0014,18.6420,4.0837,-44.5455,
7.2140,-0.0518,0.0119,0.9899,-0.0386,-0.0001,-0.0020,0.0470,-0.0046,-0.0019,18.6420,4.0837,-44.5455,
7.2140,-0.0518,0.0119,0.9899,0.0252,-0.0080,-0.0050,0.0470,-0.0046,-0.0019,18.6420,4.0837,-44.5455,
7.2210,-0.0518,0.0119,0.9899,0.0252,-0.0080,-0.0050,0.0470,-0.0046,-0.0019,18.6399,4.0668,-44.4567,
7.2440,-0.0483,0.0198,1.0286,0.0252,-0.0080,-0.0050,0.0470,-0.0046,-0.0019,18.6399,4.0668,-44.4567,
7.2700,-0.0463,0.0166,1.0286,0.0252,-0.0080,-0.0050,0.0470,-0.0046,-0.0019,18.6399,4.0668,-44.4567,
7.2720,-0.0410,0.0130,1.0137,0.0252,-0.0080,-0.0050,0.0470,-0.0046,-0.0019,18.6399,4.0668,-44.4567,
7.2730,-0.0410,0.0130,1.0137,-0.0317,-0.0152,-0.0371,0.0470,-0.0046,-0.0019,18.6399,4.0668,-44.4567,
7.2740,-0.0410,0.0130,1.0137,-0.0317,-0.0152,-0.0371,-0.0245,-0.0043,-0.0013,18.6399,4.0668,-44.4567,
7.2900,-0.0410,0.0130,1.0137,-0.0317,-0.0152,-0.0371,-0.0245,-0.0043,-0.0013,18.6026,4.0558,-44.4459,
7.3100,-0.0410,0.0130,1.0137,-0.0317,-0.0152,-0.0371,0.0045,-0.0150,-0.0026,18.6026,4.0558,-44.4459,
7.3120,-0.0396,0.0157,1.0272,-0.0317,-0.0152,-0.0371,0.0045,-0.0150,-0.0026,18.6026,4.0558,-44.4459,
7.3130,-0.0399,0.0132,1.0271,-0.0317,-0.0152,-0.0371,0.0045,-0.0150,-0.0026,18.6026,4.0558,-44.4459,
7.3480,-0.0399,0.0132,1.0271,-0.0317,-0.0152,-0.0371,0.0003,-0.0010,-0.0029,18.6026,4.0558,-44.4459,
7.3490,-0.0417,0.0099,1.0249,-0.0317,-0.0152,-0.0371,0.0003,-0.0010,-0.0029,18.6026,4.0558,-44.4459,
7.3500,-0.0457,0.0129,1.0260,-0.0317,-0.0152,-0.0371,0.0003,-0.0010,-0.0029,18.6026,4.0558,-44.4459,
7.3500,-0.0457,0.0129,1.0260,0.0040,0.0240,0.0186,0.0003,-0.0010,-0.0029,18.6026,4.0558,-44.4459,
7.3550,-0.0457,0.0129,1.0260,0.0040,0.0240,0.0186,0.0003,-0.0010,-0.0029,18.6036,4.0754,-44.4446,
7.3770,-0.0495,0.0186,1.0196,0.0040,0.0240,0.0186,0.0003,-0.0010,-0.0029,18.6036,4.0754,-44.4446,
7.3780,-0.0495,0.0186,1.0196,0.0040,0.0240,0.0186,0.0033,-0.0144,-0.0035,18.6036,4.0754,-44.4446,
7.4060,-0.0495,0.0186,1.0196,0.0162,-0.0114,0.0439,0.0033,-0.0144,-0.0035,18.6036,4.0754,-44.4446,
7.4080,-0.0476,0.0186,1.0188,0.0162,-0.0114,0.0439,0.0033,-0.0144,-0.0035,18.6036,4.0754,-44.4446,
7.4090,-0.0478,0.0141,1.0218,0.0162,-0.0114,0.0439,0.0033,-0.0144,-0.0035,18.6036,4.0754,-44.4446,
7.4090,-0.0478,0.0141,1.0218,0.0162,-0.0114,0.0439,-0.0046,-0.0074,-0.0022,18.6036,4.0754,-44.4446,
7.4220,-0.0478,0.0141,1.0218,0.0162,-0.0114,0.0439,-0.0046,-0.0074,-0.0022,18.5655,4.0554,-44.4086,
7.4440,-0.0463,0.0116,1.0239,0.0162,-0.0114,0.0439,-0.0046,-0.0074,-0.0022,18.5655,4.0554,-44.4086,
7.4850,-0.0463,0.0131,1.0227,0.0162,-0.0114,0.0439,-0.0046,-0.0074,-0.0022,18.5655,4.0554,-44.4086,
7.4860,-0.0463,0.0131,1.0227,0.0162,-0.0114,0.0439,-0.0034,-0.0126,-0.0038,18.5655,4.0554,-44.4086,
7.4860,-0.0463,0.0131,1.0227,0.0162,-0.0114,0.0439,-0.0083,-0.0172,-0.0010,18.5655,4.0554,-44.4086,
7.4870,-0.0425,0.0137,1.0144,0.0162,-0.0114,0.0439,-0.0083,-0.0172,-0.0010,18.5655,4.0554,-44.4086,
7.4880,-0.0401,0.0164,1.0337,0.0162,-0.0114,0.0439,-0.0083,-0.0172,-0.0010,18.5655,4.0554,-44.4086,
7.4880,-0.0401,0.0164,1.0337,-0.0459,0.0255,-0.0131,-0.0083,-0.0172,-0.0010,18.5655,4.0554,-44.4086,
7.4890,-0.0401,0.0164,1.0337,-0.0459,0.0255,-0.0131,-0.0083,-0.0172,-0.0010,18.4798,4.0413,-44.4254,
7.5100,-0.0421,0.0138,1.0120,-0.0459,0.0255,-0.0131,-0.0083,-0.0172,-0.0010,18.4798,4.0413,-44.4254,
7.5430,-0.0470,0.0099,1.0230,-0.0459,0.0255,-0.0131,-0.0083,-0.0172,-0.0010,18.4798,4.0413,-44.4254,
7.5450,-0.0418,0.0143,1.0242,-0.0459,0.0255,-0.0131,-0.0083,-0.0172,-0.0010,18.4798,4.0413,-44.4254,
7.5460,-0.0418,0.0143,1.0242,-0.0459,0.0255,-0.0131,0.0045,0.0186,0.0011,18.4798,4.0413,-44.4254,
7.5460,-0.0418,0.0143,1.0242,0.0028,0.0020,0.0111,0.0045,0.0186,0.0011,18.4798,4.0413,-44.4254,
7.5540,-0.0418,0.0143,1.0242,0.0028,0.0020,0.0111,0.0045,0.0186,0.0011,18.4795,4.0311,-44.4389,
7.5760,-0.0430,0.0155,1.0170,0.0028,0.0020,0.0111,0.0045,0.0186,0.0011,18.4795,4.0311,-44.4389,
7.5780,-0.0430,0.0155,1.0170,0.0028,0.0020,0.0111,0.0071,-0.0091,-0.0027,18.4795,4.0311,-44.4389,
7.6210,-0.0357,0.0122,1.0262,0.0028,0.0020,0.0111,0.0071,-0.0091,-0.0027,18.4795,4.0311,-44.4389,
7.6220,-0.0357,0.0122,1.0262,0.0028,0.0020,0.0111,-0.0036,-0.0100,-0.0006,18.4795,4.0311,-44.4389,
7.6220,-0.0363,0.0125,1.0293,0.0028,0.0020,0.0111,-0.0036,-0.0100,-0.0006,18.4795,4.0311,-44.4389,
7.6230,-0.0429,0.0144,1.0170,0.0028,0.0020,0.0111,-0.0036,-0.0100,-0.0006,18.4795,4.0311,-44.4389,
7.6230,-0.0429,0.0144,1.0170,-0.0080,-0.0071,-0.0206,-0.0036,-0.0100,-0.0006,18.4795,4.0311,-44.4389,
7.6240,-0.0429,0.0144,1.0170,-0.0080,-0.0071,-0.0206,-0.0036,-0.0100,-0.0006,18.4182,4.0182,-44.4547,
7.6430,-0.0431,0.0169,1.0212,-0.0080,-0.0071,-0.0206,-0.0036,-0.0100,-0.0006,18.4182,4.0182,-44.4547,
7.6440,-0.0431,0.0169,1.0212,-0.0080,-0.0071,-0.0206,-0.0070,-0.0176,-0.0030,18.4182,4.0182,-44.4547,
7.6800,-0.0431,0.0169,1.0212,0.0312,-0.0023,0.0045,-0.0070,-0.0176,-0.0030,18.4182,4.0182,-44.4547,
7.6820,-0.0431,0.0169,1.0212,0.0312,-0.0023,0.0045,0.0028,-0.0054,-0.0046,18.4182,4.0182,-44.4547,
7.6820,-0.0431,0.0153,1.0225,0.0312,-0.0023,0.0045,0.0028,-0.0054,-0.0046,18.4182,4.0182,-44.4547,
7.6830,-0.0435,0.0144,1.0181,0.0312,-0.0023,0.0045,0.0028,-0.0054,-0.0046,18.4182,4.0182,-44.4547,
7.6880,-0.0435,0.0144,1.0181,0.0312,-0.0023,0.0045,0.0028,-0.0054,-0.0046,18.3338,4.0230,-44.4959,
7.7110,-0.0441,0.0147,1.0236,0.0312,-0.0023,0.0045,0.0028,-0.0054,-0.0046,18.3338,4.0230,-44.4959,
7.7570,-0.0441,0.0147,1.0236,0.0312,-0.0023,0.0045,0.0077,-0.0133,-0.0064,18.3338,4.0230,-44.4959,
7.7600,-0.0443,0.0138,1.0227,0.0312,-0.0023,0.0045,0.0077,-0.0133,-0.0064,18.3338,4.0230,-44.4959,
7.7610,-0.0440,0.0157,1.0205,0.0312,-0.0023,0.0045,0.0077,-0.0133,-0.0064,18.3338,4.0230,-44.4959,
7.7610,-0.0440,0.0157,1.0205,0.0312,-0.0023,0.0045,0.0077,-0.0133,-0.0064,18.2379,4.0367,-44.5497,
7.7630,-0.0440,0.0157,1.0205,0.0312,-0.0023,0.0045,0.0074,-0.0078,-0.0043,18.2379,4.0367,-44.5497,
7.7640,-0.0429,0.0151,1.0234,0.0312,-0.0023,0.0045,0.0074,-0.0078,-0.0043,18.2379,4.0367,-44.5497,
7.7640,-0.0429,0.0151,1.0234,-0.0189,0.0106,-0.0104,0.0074,-0.0078,-0.0043,18.2379,4.0367,-44.5497,
7.7770,-0.0424,0.0149,1.0223,-0.0189,0.0106,-0.0104,0.0074,-0.0078,-0.0043,18.2379,4.0367,-44.5497,
7.8170,-0.0424,0.0149,1.0223,-0.0189,0.0106,-0.0104,0.0062,-0.0057,-0.0027,18.2379,4.0367,-44.5497,
7.8180,-0.0412,0.0140,1.0228,-0.0189,0.0106,-0.0104,0.0062,-0.0057,-0.0027,18.2379,4.0367,-44.5497,
7.8190,-0.0397,0.0127,1.0238,-0.0189,0.0106,-0.0104,0.0062,-0.0057,-0.0027,18.2379,4.0367,-44.5497,
7.8200,-0.0397,0.0127,1.0238,-0.0224,0.0005,0.0041,0.0062,-0.0057,-0.0027,18.2379,4.0367,-44.5497,
7.8220,-0.0397,0.0127,1.0238,-0.0224,0.0005,0.0041,0.0062,-0.0057,-0.0027,18.2010,4.0358,-44.5254,
7.8440,-0.0397,0.0127,1.0238,-0.0224,0.0005,0.0041,0.0095,0.0007,-0.0027,18.2010,4.0358,-44.5254,
7.8450,-0.0379,0.0125,1.0179,-0.0224,0.0005,0.0041,0.0095,0.0007,-0.0027,18.2010,4.0358,-44.5254,
7.8890,-0.0379,0.0125,1.0179,-0.0224,0.0005,0.0041,0.0046,-0.0036,-0.0036,18.2010,4.0358,-44.5254,
7.8900,-0.0379,0.0125,1.0179,-0.0224,0.0005,0.0041,0.0046,-0.0036,-0.0036,18.2020,4.0444,-44.5634,
7.8910,-0.0408,0.0131,1.0225,-0.0224,0.0005,0.0041,0.0046,-0.0036,-0.0036,18.2020,4.0444,-44.5634,
7.8910,-0.0391,0.0149,1.0246,-0.0224,0.0005,0.0041,0.0046,-0.0036,-0.0036,18.2020,4.0444,-44.5634,
7.8940,-0.0380,0.0153,1.0210,-0.0224,0.0005,0.0041,0.0046,-0.0036,-0.0036,18.2020,4.0444,-44.5634,
7.8940,-0.0380,0.0153,1.0210,0.0064,-0.0105,0.0030,0.0046,-0.0036,-0.0036,18.2020,4.0444,-44.5634,
7.9540,-0.0380,0.0153,1.0210,0.0268,-0.0204,-0.0020,0.0046,-0.0036,-0.0036,18.2020,4.0444,-44.5634,
7.9550,-0.0380,0.0153,1.0210,0.0268,-0.0204,-0.0020,-0.0051,0.0120,-0.0021,18.2020,4.0444,-44.5634,
7.9560,-0.0380,0.0153,1.0210,0.0268,-0.0204,-0.0020,0.0492,0.0053,-0.0027,18.2020,4.0444,-44.5634,
7.9570,-0.0386,0.0157,1.0273,0.0268,-0.0204,-0.0020,0.0492,0.0053,-0.0027,18.2020,4.0444,-44.5634,
7.9570,-0.0432,0.0121,1.0230,0.0268,-0.0204,-0.0020,0.0492,0.0053,-0.0027,18.2020,4.0444,-44.5634,
7.9580,-0.0447,0.0120,1.0010,0.0268,-0.0204,-0.0020,0.0492,0.0053,-0.0027,18.2020,4.0444,-44.5634,
7.9590,-0.0447,0.0120,1.0010,0.0268,-0.0204,-0.0020,0.0492,0.0053,-0.0027,18.1893,4.0231,-44.6037,
7.9770,-0.0472,0.0190,1.0212,0.0268,-0.0204,-0.0020,0.0492,0.0053,-0.0027,18.1893,4.0231,-44.6037,
8.0220,-0.0472,0.0190,1.0212,0.0268,-0.0204,-0.0020,0.0492,0.0053,-0.0027,18.1896,4.0443,-44.5510,
8.0240,-0.0456,0.0190,1.0290,0.0268,-0.0204,-0.0020,0.0492,0.0053,-0.0027,18.1896,4.0443,-44.5510,
8.0250,-0.0399,0.0138,1.0173,0.0268,-0.0204,-0.0020,0.0492,0.0053,-0.0027,18.1896,4.0443,-44.5510,
8.0250,-0.0399,0.0138,1.0173,0.0268,-0.0204,-0.0020,-0.0293,0.0004,-0.0033,18.1896,4.0443,-44.5510,
8.0310,-0.0353,0.0155,1.0245,0.0268,-0.0204,-0.0020,-0.0293,0.0004,-0.0033,18.1896,4.0443,-44.5510,
8.0330,-0.0353,0.0155,1.0245,0.0268,-0.0204,-0.0020,-0.0051,-0.0246,-0.0036,18.1896,4.0443,-44.5510,
8.0330,-0.0353,0.0155,1.0245,-0.0190,-0.0101,-0.0412,-0.0051,-0.0246,-0.0036,18.1896,4.0443,-44.5510,
8.0910,-0.0353,0.0164,1.0229,-0.0190,-0.0101,-0.0412,-0.0051,-0.0246,-0.0036,18.1896,4.0443,-44.5510,
8.0920,-0.0353,0.0164,1.0229,-0.0190,-0.0101,-0.0412,-0.0051,-0.0246,-0.0036,18.1265,4.0137,-44.5037,
8.0920,-0.0353,0.0164,1.0229,-0.0190,-0.0101,-0.0412,-0.0036,0.0013,-0.0030,18.1265,4.0137,-44.5037,
8.0930,-0.0341,0.0141,1.0249,-0.0190,-0.0101,-0.0412,-0.0036,0.0013,-0.0030,18.1265,4.0137,-44.5037,
8.0930,-0.0379,0.0130,1.0288,-0.0190,-0.0101,-0.0412,-0.0036,0.0013,-0.0030,18.1265,4.0137,-44.5037,
8.0930,-0.0379,0.0130,1.0288,-0.0021,0.0174,0.0178,-0.0036,0.0013,-0.0030,18.1265,4.0137,-44.5037,
8.1100,-0.0379,0.0130,1.0288,-0.0021,0.0174,0.0178,-0.0018,-0.0026,-0.0021,18.1265,4.0137,-44.5037,
8.1110,-0.0430,0.0159,1.0234,-0.0021,0.0174,0.0178,-0.0018,-0.0026,-0.0021,18.1265,4.0137,-44.5037,
8.1560,-0.0430,0.0159,1.0234,-0.0021,0.0174,0.0178,-0.0024,-0.0097,-0.0009,18.1265,4.0137,-44.5037,
8.1580,-0.0430,0.0159,1.0234,-0.0021,0.0174,0.0178,-0.0024,-0.0097,-0.0009,18.1156,4.0320,-44.5286,
8.1580,-0.0461,0.0179,1.0184,-0.0021,0.0174,0.0178,-0.0024,-0.0097,-0.0009,18.1156,4.0320,-44.5286,
8.1590,-0.0443,0.0185,1.0221,-0.0021,0.0174,0.0178,-0.0024,-0.0097,-0.0009,18.1156,4.0320,-44.5286,
8.1680,-0.0443,0.0185,1.0221,0.0352,-0.0012,0.0293,-0.0024,-0.0097,-0.0009,18.1156,4.0320,-44.5286,
8.1690,-0.0425,0.0151,1.0235,0.0352,-0.0012,0.0293,-0.0024,-0.0097,-0.0009,18.1156,4.0320,-44.5286,
8.2240,-0.0425,0.0151,1.0235,0.0352,-0.0012,0.0293,-0.0024,-0.0097,-0.0009,18.1166,4.0406,-44.5666,
8.2260,-0.0425,0.0151,1.0235,0.0352,-0.0012,0.0293,-0.0061,-0.0030,-0.0030,18.1166,4.0406,-44.5666,
8.2270,-0.0420,0.0136,1.0229,0.0352,-0.0012,0.0293,-0.0061,-0.0030,-0.0030,18.1166,4.0406,-44.5666,
8.2280,-0.0413,0.0122,1.0238,0.0352,-0.0012,0.0293,-0.0061,-0.0030,-0.0030,18.1166,4.0406,-44.5666,
8.2280,-0.0413,0.0122,1.0238,0.0352,-0.0012,0.0293,-0.0131,-0.0072,-0.0030,18.1166,4.0406,-44.5666,
8.2290,-0.0407,0.0133,1.0280,0.0352,-0.0012,0.0293,-0.0131,-0.0072,-0.0030,18.1166,4.0406,-44.5666,
8.2290,-0.0407,0.0133,1.0280,-0.0426,0.0270,-0.0050,-0.0131,-0.0072,-0.0030,18.1166,4.0406,-44.5666,
8.2910,-0.0376,0.0142,1.0188,-0.0426,0.0270,-0.0050,-0.0131,-0.0072,-0.0030,18.1166,4.0406,-44.5666,
8.2930,-0.0376,0.0142,1.0188,-0.0426,0.0270,-0.0050,0.0028,0.0233,0.0003,18.1166,4.0406,-44.5666,
8.2940,-0.0450,0.0108,1.0253,-0.0426,0.0270,-0.0050,0.0028,0.0233,0.0003,18.1166,4.0406,-44.5666,
8.2950,-0.0417,0.0115,1.0177,-0.0426,0.0270,-0.0050,0.0028,0.0233,0.0003,18.1166,4.0406,-44.5666,
8.2960,-0.0417,0.0115,1.0177,-0.0426,0.0270,-0.0050,0.0028,0.0233,0.0003,18.1893,4.0341,-44.5645,
8.3030,-0.0417,0.0115,1.0177,-0.0426,0.0270,-0.0050,0.0059,-0.0140,-0.0024,18.1893,4.0341,-44.5645,
8.3050,-0.0403,0.0153,1.0252,-0.0426,0.0270,-0.0050,0.0059,-0.0140,-0.0024,18.1893,4.0341,-44.5645,
8.3060,-0.0403,0.0153,1.0252,-0.0025,-0.0124,0.0302,0.0059,-0.0140,-0.0024,18.1893,4.0341,-44.5645,
8.3570,-0.0403,0.0153,1.0252,-0.0025,-0.0124,0.0302,0.0049,-0.0081,0.0003,18.1893,4.0341,-44.5645,
8.3580,-0.0343,0.0154,1.0222,-0.0025,-0.0124,0.0302,0.0049,-0.0081,0.0003,18.1893,4.0341,-44.5645,
8.3590,-0.0343,0.0154,1.0222,-0.0025,-0.0124,0.0302,0.0049,-0.0081,0.0003,18.3227,4.0196,-44.5864,
8.3590,-0.0307,0.0119,1.0283,-0.0025,-0.0124,0.0302,0.0049,-0.0081,0.0003,18.3227,4.0196,-44.5864,
8.3620,-0.0369,0.0118,1.0256,-0.0025,-0.0124,0.0302,0.0049,-0.0081,0.0003,18.3227,4.0196,-44.5864,
8.3620,-0.0369,0.0118,1.0256,-0.0122,-0.0176,-0.0168,0.0049,-0.0081,0.0003,18.3227,4.0196,-44.5864,
8.4240,-0.0369,0.0118,1.0256,-0.0122,-0.0176,-0.0168,-0.0051,-0.0103,-0.0030,18.3227,4.0196,-44.5864,
8.4260,-0.0419,0.0148,1.0183,-0.0122,-0.0176,-0.0168,-0.0051,-0.0103,-0.0030,18.3227,4.0196,-44.5864,
8.4260,-0.0410,0.0164,1.0244,-0.0122,-0.0176,-0.0168,-0.0051,-0.0103,-0.0030,18.3227,4.0196,-44.5864,
8.4270,-0.0401,0.0155,1.0236,-0.0122,-0.0176,-0.0168,-0.0051,-0.0103,-0.0030,18.3227,4.0196,-44.5864,
8.4280,-0.0401,0.0155,1.0236,-0.0122,-0.0176,-0.0168,-0.0051,-0.0103,-0.0030,18.3704,4.0246,-44.4945,
8.4290,-0.0401,0.0155,1.0236,-0.0122,-0.0176,-0.0168,-0.0079,-0.0063,-0.0024,18.3704,4.0246,-44.4945,
8.4410,-0.0401,0.0155,1.0236,0.0414,-0.0102,0.0183,-0.0079,-0.0063,-0.0024,18.3704,4.0246,-44.4945,
8.4430,-0.0412,0.0140,1.0196,0.0414,-0.0102,0.0183,-0.0079,-0.0063,-0.0024,18.3704,4.0246,-44.4945,
8.4880,-0.0412,0.0140,1.0196,0.0414,-0.0102,0.0183,0.0104,-0.0033,-0.0046,18.3704,4.0246,-44.4945,
8.4890,-0.0423,0.0147,1.0244,0.0414,-0.0102,0.0183,0.0104,-0.0033,-0.0046,18.3704,4.0246,-44.4945,
8.4900,-0.0423,0.0147,1.0244,0.0414,-0.0102,0.0183,0.0104,-0.0033,-0.0046,18.4304,4.0187,-44.4542,
8.4910,-0.0434,0.0148,1.0244,0.0414,-0.0102,0.0183,0.0104,-0.0033,-0.0046,18.4304,4.0187,-44.4542,
8.4980,-0.0431,0.0149,1.0216,0.0414,-0.0102,0.0183,0.0104,-0.0033,-0.0046,18.4304,4.0187,-44.4542,
8.4990,-0.0431,0.0149,1.0216,0.0414,-0.0102,0.0183,0.0095,-0.0033,-0.0043,18.4304,4.0187,-44.4542,
8.5000,-0.0431,0.0149,1.0216,-0.0170,0.0057,-0.0065,0.0095,-0.0033,-0.0043,18.4304,4.0187,-44.4542,
8.5550,-0.0431,0.0149,1.0216,-0.0170,0.0057,-0.0065,0.0043,-0.0078,-0.0027,18.4304,4.0187,-44.4542,
8.5560,-0.0431,0.0149,1.0216,-0.0170,0.0057,-0.0065,0.0043,-0.0078,-0.0027,18.4549,4.0084,-44.5054,
8.5570,-0.0424,0.0142,1.0242,-0.0170,0.0057,-0.0065,0.0043,-0.0078,-0.0027,18.4549,4.0084,-44.5054,
8.5580,-0.0404,0.0154,1.0245,-0.0170,0.0057,-0.0065,0.0043,-0.0078,-0.0027,18.4549,4.0084,-44.5054,
8.5770,-0.0380,0.0153,1.0241,-0.0170,0.0057,-0.0065,0.0043,-0.0078,-0.0027,18.4549,4.0084,-44.5054,
8.5780,-0.0380,0.0153,1.0241,-0.0381,-0.0025,0.0080,0.0043,-0.0078,-0.0027,18.4549,4.0084,-44.5054,
8.5790,-0.0362,0.0131,1.0261,-0.0381,-0.0025,0.0080,0.0043,-0.0078,-0.0027,18.4549,4.0084,-44.5054,
8.5790,-0.0362,0.0131,1.0261,-0.0381,-0.0025,0.0080,0.0028,-0.0121,-0.0021,18.4549,4.0084,-44.5054,
8.6220,-0.0358,0.0124,1.0183,-0.0381,-0.0025,0.0080,0.0028,-0.0121,-0.0021,18.4549,4.0084,-44.5054,
8.6230,-0.0358,0.0124,1.0183,-0.0381,-0.0025,0.0080,0.0028,-0.0121,-0.0021,18.5300,4.0289,-44.5785,
8.6240,-0.0358,0.0124,1.0183,-0.0381,-0.0025,0.0080,0.0068,-0.0030,-0.0030,18.5300,4.0289,-44.5785,
8.6250,-0.0379,0.0143,1.0238,-0.0381,-0.0025,0.0080,0.0068,-0.0030,-0.0030,18.5300,4.0289,-44.5785,
8.6360,-0.0379,0.0143,1.0238,-0.0041,-0.0073,0.0200,0.0068,-0.0030,-0.0030,18.5300,4.0289,-44.5785,
8.6370,-0.0368,0.0148,1.0266,-0.0041,-0.0073,0.0200,0.0068,-0.0030,-0.0030,18.5300,4.0289,-44.5785,
8.6890,-0.0368,0.0148,1.0266,-0.0041,-0.0073,0.0200,-0.0003,-0.0143,-0.0043,18.5300,4.0289,-44.5785,
8.6900,-0.0368,0.0148,1.0266,-0.0041,-0.0073,0.0200,-0.0003,-0.0143,-0.0043,18.5778,4.0114,-44.5779,
8.6900,-0.0327,0.0159,1.0227,-0.0041,-0.0073,0.0200,-0.0003,-0.0143,-0.0043,18.5778,4.0114,-44.5779,
8.6910,-0.0352,0.0176,1.0275,-0.0041,-0.0073,0.0200,-0.0003,-0.0143,-0.0043,18.5778,4.0114,-44.5779,
8.7100,-0.0352,0.0176,1.0275,-0.0041,-0.0073,0.0200,0.0208,0.0196,-0.0009,18.5778,4.0114,-44.5779,
8.7110,-0.0390,0.0149,1.0245,-0.0041,-0.0073,0.0200,0.0208,0.0196,-0.0009,18.5778,4.0114,-44.5779,
8.7140,-0.0390,0.0149,1.0245,0.0204,-0.0270,-0.0002,0.0208,0.0196,-0.0009,18.5778,4.0114,-44.5779,
8.7150,-0.0425,0.0115,1.0100,0.0204,-0.0270,-0.0002,0.0208,0.0196,-0.0009,18.5778,4.0114,-44.5779,
8.7560,-0.0425,0.0115,1.0100,0.0204,-0.0270,-0.0002,0.0126,-0.0161,-0.0058,18.5778,4.0114,-44.5779,
8.7580,-0.0425,0.0115,1.0100,0.0204,-0.0270,-0.0002,0.0126,-0.0161,-0.0058,18.6257,3.9935,-44.5902,
8.7590,-0.0421,0.0177,1.0147,0.0204,-0.0270,-0.0002,0.0126,-0.0161,-0.0058,18.6257,3.9935,-44.5902,
8.7590,-0.0430,0.0196,1.0312,0.0204,-0.0270,-0.0002,0.0126,-0.0161,-0.0058,18.6257,3.9935,-44.5902,
8.7730,-0.0430,0.0196,1.0312,-0.0078,-0.0029,-0.0171,0.0126,-0.0161,-0.0058,18.6257,3.9935,-44.5902,
8.7740,-0.0402,0.0116,1.0211,-0.0078,-0.0029,-0.0171,0.0126,-0.0161,-0.0058,18.6257,3.9935,-44.5902,
8.7750,-0.0402,0.0116,1.0211,-0.0078,-0.0029,-0.0171,-0.0198,-0.0161,0.0003,18.6257,3.9935,-44.5902,
8.8220,-0.0402,0.0116,1.0211,-0.0078,-0.0029,-0.0171,-0.0070,-0.0344,-0.0040,18.6257,3.9935,-44.5902,
8.8230,-0.0402,0.0116,1.0211,-0.0078,-0.0029,-0.0171,-0.0070,-0.0344,-0.0040,18.5772,4.0130,-44.5265,
8.8240,-0.0357,0.0124,1.0256,-0.0078,-0.0029,-0.0171,-0.0070,-0.0344,-0.0040,18.5772,4.0130,-44.5265,
8.8250,-0.0321,0.0153,1.0252,-0.0078,-0.0029,-0.0171,-0.0070,-0.0344,-0.0040,18.5772,4.0130,-44.5265,
8.8430,-0.0269,0.0149,1.0257,-0.0078,-0.0029,-0.0171,-0.0070,-0.0344,-0.0040,18.5772,4.0130,-44.5265,
8.8510,-0.0285,0.0133,1.0310,-0.0078,-0.0029,-0.0171,-0.0070,-0.0344,-0.0040,18.5772,4.0130,-44.5265,
8.8520,-0.0285,0.0133,1.0310,-0.0078,-0.0029,-0.0171,-0.0045,-0.0167,-0.0040,18.5772,4.0130,-44.5265,
8.8530,-0.0285,0.0133,1.0310,-0.0473,0.0062,-0.0021,-0.0045,-0.0167,-0.0040,18.5772,4.0130,-44.5265,
8.8900,-0.0357,0.0142,1.0257,-0.0473,0.0062,-0.0021,-0.0045,-0.0167,-0.0040,18.5772,4.0130,-44.5265,
8.8920,-0.0357,0.0142,1.0257,-0.0473,0.0062,-0.0021,-0.0045,-0.0167,-0.0040,18.4926,4.0182,-44.5548,
8.9090,-0.0403,0.0173,1.0190,-0.0473,0.0062,-0.0021,-0.0045,-0.0167,-0.0040,18.4926,4.0182,-44.5548,
8.9110,-0.0393,0.0191,1.0202,-0.0473,0.0062,-0.0021,-0.0045,-0.0167,-0.0040,18.4926,4.0182,-44.5548,
8.9110,-0.0393,0.0191,1.0202,-0.0473,0.0062,-0.0021,0.0031,-0.0140,-0.0009,18.4926,4.0182,-44.5548,
8.9120,-0.0393,0.0191,1.0202,0.0458,-0.0027,0.0397,0.0031,-0.0140,-0.0009,18.4926,4.0182,-44.5548,
8.9550,-0.0363,0.0163,1.0249,0.0458,-0.0027,0.0397,0.0031,-0.0140,-0.0009,18.4926,4.0182,-44.5548,
8.9570,-0.0340,0.0137,1.0255,0.0458,-0.0027,0.0397,0.0031,-0.0140,-0.0009,18.4926,4.0182,-44.5548,
8.9570,-0.0340,0.0137,1.0255,0.0458,-0.0027,0.0397,-0.0116,-0.0133,0.0009,18.4926,4.0182,-44.5548,
8.9580,-0.0340,0.0137,1.0255,0.0458,-0.0027,0.0397,-0.0116,-0.0133,0.0009,18.4196,4.0035,-44.6097,
8.9760,-0.0352,0.0115,1.0244,0.0458,-0.0027,0.0397,-0.0116,-0.0133,0.0009,18.4196,4.0035,-44.6097,
8.9790,-0.0352,0.0115,1.0244,0.0458,-0.0027,0.0397,-0.0134,-0.0069,-0.0018,18.4196,4.0035,-44.6097,
8.9900,-0.0352,0.0115,1.0244,-0.0348,0.0270,-0.0108,-0.0134,-0.0069,-0.0018,18.4196,4.0035,-44.6097,
8.9930,-0.0331,0.0110,1.0227,-0.0348,0.0270,-0.0108,-0.0134,-0.0069,-0.0018,18.4196,4.0035,-44.6097,
9.0220,-0.0331,0.0110,1.0227,-0.0348,0.0270,-0.0108,-0.0103,-0.0075,-0.0018,18.4196,4.0035,-44.6097,
9.0230,-0.0331,0.0110,1.0227,-0.0348,0.0270,-0.0108,-0.0103,-0.0075,-0.0018,18.2749,4.0150,-44.6654,
9.0240,-0.0319,0.0127,1.0279,-0.0348,0.0270,-0.0108,-0.0103,-0.0075,-0.0018,18.2749,4.0150,-44.6654,
9.0430,-0.0376,0.0113,1.0232,-0.0348,0.0270,-0.0108,-0.0103,-0.0075,-0.0018,18.2749,4.0150,-44.6654,
9.0450,-0.0362,0.0118,1.0217,-0.0348,0.0270,-0.0108,-0.0103,-0.0075,-0.0018,18.2749,4.0150,-44.6654,
9.0450,-0.0362,0.0118,1.0217,-0.0348,0.0270,-0.0108,0.0043,0.0087,0.0000,18.2749,4.0150,-44.6654,
9.0460,-0.0362,0.0118,1.0217,0.0031,-0.0130,0.0099,0.0043,0.0087,0.0000,18.2749,4.0150,-44.6654,
9.0890,-0.0362,0.0118,1.0217,0.0031,-0.0130,0.0099,0.0052,-0.0069,-0.0006,18.2749,4.0150,-44.6654,
9.0910,-0.0335,0.0142,1.0246,0.0031,-0.0130,0.0099,0.0052,-0.0069,-0.0006,18.2749,4.0150,-44.6654,
9.0920,-0.0293,0.0151,1.0207,0.0031,-0.0130,0.0099,0.0052,-0.0069,-0.0006,18.2749,4.0150,-44.6654,
9.0930,-0.0293,0.0151,1.0207,0.0031,-0.0130,0.0099,0.0052,-0.0069,-0.0006,18.1909,4.0301,-44.6931,
9.1100,-0.0269,0.0136,1.0279,0.0031,-0.0130,0.0099,0.0052,-0.0069,-0.0006,18.1909,4.0301,-44.6931,
9.1250,-0.0269,0.0136,1.0279,0.0031,-0.0130,0.0099,0.0010,-0.0060,0.0025,18.1909,4.0301,-44.6931,
9.1260,-0.0269,0.0136,1.0279,-0.0070,-0.0174,0.0090,0.0010,-0.0060,0.0025,18.1909,4.0301,-44.6931,
9.1270,-0.0263,0.0102,1.0280,-0.0070,-0.0174,0.0090,0.0010,-0.0060,0.0025,18.1909,4.0301,-44.6931,
9.1550,-0.0301,0.0136,1.0273,-0.0070,-0.0174,0.0090,0.0010,-0.0060,0.0025,18.1909,4.0301,-44.6931,
9.1570,-0.0301,0.0136,1.0273,-0.0070,-0.0174,0.0090,0.0010,-0.0060,0.0025,18.0934,4.0367,-44.6576,
9.1770,-0.0330,0.0163,1.0225,-0.0070,-0.0174,0.0090,0.0010,-0.0060,0.0025,18.0934,4.0367,-44.6576,
9.1780,-0.0330,0.0163,1.0225,-0.0070,-0.0174,0.0090,-0.0054,0.0010,0.0000,18.0934,4.0367,-44.6576,
9.1820,-0.0314,0.0155,1.0316,-0.0070,-0.0174,0.0090,-0.0054,0.0010,0.0000,18.0934,4.0367,-44.6576,
9.1830,-0.0314,0.0155,1.0316,0.0560,-0.0036,0.0172,-0.0054,0.0010,0.0000,18.0934,4.0367,-44.6576,
9.2230,-0.0314,0.0155,1.0316,0.0560,-0.0036,0.0172,-0.0024,0.0135,-0.0015,18.0934,4.0367,-44.6576,
9.2240,-0.0347,0.0135,1.0232,0.0560,-0.0036,0.0172,-0.0024,0.0135,-0.0015,18.0934,4.0367,-44.6576,
9.2250,-0.0390,0.0144,1.0235,0.0560,-0.0036,0.0172,-0.0024,0.0135,-0.0015,18.0934,4.0367,-44.6576,
9.2250,-0.0390,0.0144,1.0235,0.0560,-0.0036,0.0172,-0.0024,0.0135,-0.0015,18.0344,4.0733,-44.6574,
9.2430,-0.0397,0.0130,1.0279,0.0560,-0.0036,0.0172,-0.0024,0.0135,-0.0015,18.0344,4.0733,-44.6574,
9.2440,-0.0397,0.0130,1.0279,0.0560,-0.0036,0.0172,0.0049,0.0093,-0.0033,18.0344,4.0733,-44.6574,
9.2600,-0.0397,0.0130,1.0279,0.0250,0.0083,0.0289,0.0049,0.0093,-0.0033,18.0344,4.0733,-44.6574,
9.2610,-0.0385,0.0137,1.0241,0.0250,0.0083,0.0289,0.0049,0.0093,-0.0033,18.0344,4.0733,-44.6574,
9.2880,-0.0390,0.0138,1.0224,0.0250,0.0083,0.0289,0.0049,0.0093,-0.0033,18.0344,4.0733,-44.6574,
9.2890,-0.0390,0.0138,1.0224,0.0250,0.0083,0.0289,0.0086,0.0105,-0.0009,18.0344,4.0733,-44.6574,
9.2900,-0.0390,0.0138,1.0224,0.0250,0.0083,0.0289,0.0086,0.0105,-0.0009,17.9616,4.0803,-44.6466,
9.3100,-0.0374,0.0143,1.0253,0.0250,0.0083,0.0289,0.0086,0.0105,-0.0009,17.9616,4.0803,-44.6466,
9.3190,-0.0374,0.0143,1.0253,0.0250,0.0083,0.0289,0.0059,0.0080,0.0000,17.9616,4.0803,-44.6466,
9.3200,-0.0349,0.0147,1.0234,0.0250,0.0083,0.0289,0.0059,0.0080,0.0000,17.9616,4.0803,-44.6466,
9.3200,-0.0349,0.0147,1.0234,-0.0298,-0.0080,0.0053,0.0059,0.0080,0.0000,17.9616,4.0803,-44.6466,
9.3550,-0.0349,0.0147,1.0234,-0.0298,-0.0080,0.0053,0.0059,0.0080,0.0000,17.9348,4.0297,-44.6636,
9.3560,-0.0327,0.0130,1.0246,-0.0298,-0.0080,0.0053,0.0059,0.0080,0.0000,17.9348,4.0297,-44.6636,
9.3780,-0.0316,0.0130,1.0266,-0.0298,-0.0080,0.0053,0.0059,0.0080,0.0000,17.9348,4.0297,-44.6636,
9.3800,-0.0316,0.0130,1.0266,-0.0298,-0.0080,0.0053,0.0037,0.0071,-0.0003,17.9348,4.0297,-44.6636,
9.3800,-0.0331,0.0124,1.0256,-0.0298,-0.0080,0.0053,0.0037,0.0071,-0.0003,17.9348,4.0297,-44.6636,
9.3970,-0.0331,0.0124,1.0256,-0.0055,-0.0070,-0.0015,0.0037,0.0071,-0.0003,17.9348,4.0297,-44.6636,
9.3980,-0.0336,0.0137,1.0258,-0.0055,-0.0070,-0.0015,0.0037,0.0071,-0.0003,17.9348,4.0297,-44.6636,
9.3990,-0.0336,0.0137,1.0258,-0.0055,-0.0070,-0.0015,0.0080,0.0080,-0.0006,17.9348,4.0297,-44.6636,
9.4220,-0.0355,0.0144,1.0174,-0.0055,-0.0070,-0.0015,0.0080,0.0080,-0.0006,17.9348,4.0297,-44.6636,
9.4230,-0.0355,0.0144,1.0174,-0.0055,-0.0070,-0.0015,0.0080,0.0080,-0.0006,17.8983,4.0391,-44.6257,
9.4430,-0.0373,0.0160,1.0247,-0.0055,-0.0070,-0.0015,0.0080,0.0080,-0.0006,17.8983,4.0391,-44.6257,
9.4450,-0.0373,0.0160,1.0247,-0.0055,-0.0070,-0.0015,0.0095,0.0206,-0.0006,17.8983,4.0391,-44.6257,
9.4560,-0.0373,0.0160,1.0247,0.0370,-0.0197,0.0167,0.0095,0.0206,-0.0006,17.8983,4.0391,-44.6257,
9.4570,-0.0371,0.0157,1.0263,0.0370,-0.0197,0.0167,0.0095,0.0206,-0.0006,17.8983,4.0391,-44.6257,
9.4880,-0.0343,0.0158,1.0213,0.0370,-0.0197,0.0167,0.0095,0.0206,-0.0006,17.8983,4.0391,-44.6257,
9.4890,-0.0343,0.0158,1.0213,0.0370,-0.0197,0.0167,0.0001,0.0047,-0.0015,17.8983,4.0391,-44.6257,
9.4900,-0.0343,0.0158,1.0213,0.0370,-0.0197,0.0167,0.0001,0.0047,-0.0015,17.8857,4.0393,-44.6005,
9.5110,-0.0374,0.0162,1.0324,0.0370,-0.0197,0.0167,0.0001,0.0047,-0.0015,17.8857,4.0393,-44.6005,
9.5330,-0.0374,0.0162,1.0324,0.0120,-0.0111,-0.0144,0.0001,0.0047,-0.0015,17.8857,4.0393,-44.6005,
9.5350,-0.0374,0.0162,1.0324,0.0120,-0.0111,-0.0144,0.0193,0.0328,0.0009,17.8857,4.0393,-44.6005,
9.5350,-0.0414,0.0136,1.0214,0.0120,-0.0111,-0.0144,0.0193,0.0328,0.0009,17.8857,4.0393,-44.6005,
9.5360,-0.0439,0.0101,1.0100,0.0120,-0.0111,-0.0144,0.0193,0.0328,0.0009,17.8857,4.0393,-44.6005,
9.5550,-0.0439,0.0101,1.0100,0.0120,-0.0111,-0.0144,0.0110,0.0019,-0.0040,17.8857,4.0393,-44.6005,
9.5560,-0.0439,0.0101,1.0100,0.0120,-0.0111,-0.0144,0.0110,0.0019,-0.0040,17.9952,4.0340,-44.6098,
9.5570,-0.0463,0.0169,1.0167,0.0120,-0.0111,-0.0144,0.0110,0.0019,-0.0040,17.9952,4.0340,-44.6098,
9.5770,-0.0435,0.0186,1.0294,0.0120,-0.0111,-0.0144,0.0110,0.0019,-0.0040,17.9952,4.0340,-44.6098,
9.5920,-0.0384,0.0133,1.0211,0.0120,-0.0111,-0.0144,0.0110,0.0019,-0.0040,17.9952,4.0340,-44.6098,
9.5940,-0.0384,0.0133,1.0211,0.0120,-0.0111,-0.0144,-0.0128,-0.0060,0.0006,17.9952,4.0340,-44.6098,
9.5940,-0.0384,0.0133,1.0211,-0.0226,-0.0145,-0.0212,-0.0128,-0.0060,0.0006,17.9952,4.0340,-44.6098,
9.6210,-0.0384,0.0133,1.0211,-0.0226,-0.0145,-0.0212,-0.0128,-0.0060,0.0006,18.0302,4.0172,-44.5711,
9.6230,-0.0310,0.0144,1.0261,-0.0226,-0.0145,-0.0212,-0.0128,-0.0060,0.0006,18.0302,4.0172,-44.5711,
9.6440,-0.0312,0.0137,1.0316,-0.0226,-0.0145,-0.0212,-0.0128,-0.0060,0.0006,18.0302,4.0172,-44.5711,
9.6450,-0.0312,0.0137,1.0316,-0.0226,-0.0145,-0.0212,-0.0051,-0.0060,-0.0003,18.0302,4.0172,-44.5711,
9.6710,-0.0297,0.0118,1.0244,-0.0226,-0.0145,-0.0212,-0.0051,-0.0060,-0.0003,18.0302,4.0172,-44.5711,
9.6720,-0.0297,0.0118,1.0244,-0.0226,-0.0145,-0.0212,-0.0018,0.0151,0.0012,18.0302,4.0172,-44.5711,
9.6730,-0.0297,0.0118,1.0244,-0.0263,0.0082,-0.0102,-0.0018,0.0151,0.0012,18.0302,4.0172,-44.5711,
9.6730,-0.0349,0.0116,1.0267,-0.0263,0.0082,-0.0102,-0.0018,0.0151,0.0012,18.0302,4.0172,-44.5711,
9.6890,-0.0349,0.0116,1.0267,-0.0263,0.0082,-0.0102,-0.0018,0.0151,0.0012,18.0797,4.0288,-44.5815,
9.7100,-0.0403,0.0165,1.0211,-0.0263,0.0082,-0.0102,-0.0018,0.0151,0.0012,18.0797,4.0288,-44.5815,
9.7110,-0.0435,0.0212,1.0181,-0.0263,0.0082,-0.0102,-0.0018,0.0151,0.0012,18.0797,4.0288,-44.5815,
9.7120,-0.0435,0.0212,1.0181,-0.0263,0.0082,-0.0102,0.0071,-0.0005,0.0019,18.0797,4.0288,-44.5815,
9.7290,-0.0431,0.0187,1.0219,-0.0263,0.0082,-0.0102,0.0071,-0.0005,0.0019,18.0797,4.0288,-44.5815,
9.7300,-0.0431,0.0187,1.0219,0.0609,-0.0220,0.0375,0.0071,-0.0005,0.0019,18.0797,4.0288,-44.5815,
9.7540,-0.0431,0.0187,1.0219,0.0609,-0.0220,0.0375,-0.0045,0.0035,0.0003,18.0797,4.0288,-44.5815,
9.7550,-0.0431,0.0187,1.0219,0.0609,-0.0220,0.0375,-0.0045,0.0035,0.0003,18.1159,4.0312,-44.5544,
9.7560,-0.0413,0.0144,1.0232,0.0609,-0.0220,0.0375,-0.0045,0.0035,0.0003,18.1159,4.0312,-44.5544,
9.7760,-0.0415,0.0124,1.0242,0.0609,-0.0220,0.0375,-0.0045,0.0035,0.0003,18.1159,4.0312,-44.5544,
9.8070,-0.0415,0.0124,1.0242,-0.0372,0.0344,-0.0281,-0.0045,0.0035,0.0003,18.1159,4.0312,-44.5544,
9.8090,-0.0408,0.0127,1.0235,-0.0372,0.0344,-0.0281,-0.0045,0.0035,0.0003,18.1159,4.0312,-44.5544,
9.8110,-0.0408,0.0127,1.0235,-0.0372,0.0344,-0.0281,-0.0085,-0.0023,0.0003,18.1159,4.0312,-44.5544,
9.8120,-0.0387,0.0141,1.0190,-0.0372,0.0344,-0.0281,-0.0085,-0.0023,0.0003,18.1159,4.0312,-44.5544,
9.8220,-0.0387,0.0141,1.0190,-0.0372,0.0344,-0.0281,-0.0085,-0.0023,0.0003,18.1646,4.0338,-44.5396,
9.8430,-0.0375,0.0148,1.0279,-0.0372,0.0344,-0.0281,-0.0085,-0.0023,0.0003,18.1646,4.0338,-44.5396,
9.8440,-0.0375,0.0148,1.0279,-0.0372,0.0344,-0.0281,-0.0116,0.0059,0.0012,18.1646,4.0338,-44.5396,
9.8640,-0.0430,0.0114,1.0173,-0.0372,0.0344,-0.0281,-0.0116,0.0059,0.0012,18.1646,4.0338,-44.5396,
9.8650,-0.0430,0.0114,1.0173,-0.0372,0.0344,-0.0281,0.0025,0.0206,0.0025,18.1646,4.0338,-44.5396,
9.8660,-0.0404,0.0114,1.0173,-0.0372,0.0344,-0.0281,0.0025,0.0206,0.0025,18.1646,4.0338,-44.5396,
9.8660,-0.0404,0.0114,1.0173,-0.0096,-0.0124,-0.0101,0.0025,0.0206,0.0025,18.1646,4.0338,-44.5396,
9.8890,-0.0404,0.0114,1.0173,-0.0096,-0.0124,-0.0101,0.0025,0.0206,0.0025,18.1542,4.0509,-44.6032,
9.8900,-0.0370,0.0159,1.0286,-0.0096,-0.0124,-0.0101,0.0025,0.0206,0.0025,18.1542,4.0509,-44.6032,
9.9090,-0.0347,0.0144,1.0208,-0.0096,-0.0124,-0.0101,0.0025,0.0206,0.0025,18.1542,4.0509,-44.6032,
9.9110,-0.0347,0.0144,1.0208,-0.0096,-0.0124,-0.0101,0.0034,0.0010,0.0022,18.1542,4.0509,-44.6032,
9.9430,-0.0347,0.0144,1.0208,-0.0096,-0.0124,-0.0101,-0.0061,0.0013,0.0022,18.1542,4.0509,-44.6032,
9.9440,-0.0325,0.0122,1.0300,-0.0096,-0.0124,-0.0101,-0.0061,0.0013,0.0022,18.1542,4.0509,-44.6032,
9.9450,-0.0360,0.0114,1.0256,-0.0096,-0.0124,-0.0101,-0.0061,0.0013,0.0022,18.1542,4.0509,-44.6032,
9.9450,-0.0360,0.0114,1.0256,-0.0026,-0.0125,-0.0108,-0.0061,0.0013,0.0022,18.1542,4.0509,-44.6032,
9.9550,-0.0360,0.0114,1.0256,-0.0026,-0.0125,-0.0108,-0.0061,0.0013,0.0022,18.1913,4.0623,-44.6012,
9.9760,-0.0412,0.0154,1.0178,-0.0026,-0.0125,-0.0108,-0.0061,0.0013,0.0022,18.1913,4.0623,-44.6012,
10.0020,-0.0412,0.0154,1.0178,-0.0026,-0.0125,-0.0108,-0.0091,-0.0060,0.0012,18.1913,4.0623,-44.6012,
10.0030,-0.0412,0.0154,1.0178,0.0416,-0.0065,0.0205,-0.0091,-0.0060,0.0012,18.1913,4.0623,-44.6012,
10.0040,-0.0402,0.0177,1.0238,0.0416,-0.0065,0.0205,-0.0091,-0.0060,0.0012,18.1913,4.0623,-44.6012,
10.0050,-0.0393,0.0149,1.0219,0.0416,-0.0065,0.0205,-0.0091,-0.0060,0.0012,18.1913,4.0623,-44.6012,
10.0220,-0.0393,0.0149,1.0219,0.0416,-0.0065,0.0205,-0.0091,-0.0060,0.0012,18.2517,4.0442,-44.6387,
10.0240,-0.0424,0.0136,1.0169,0.0416,-0.0065,0.0205,-0.0091,-0.0060,0.0012,18.2517,4.0442,-44.6387,
10.0240,-0.0424,0.0136,1.0169,0.0416,-0.0065,0.0205,0.0022,0.0096,0.0000,18.2517,4.0442,-44.6387,
10.0430,-0.0454,0.0131,1.0227,0.0416,-0.0065,0.0205,0.0022,0.0096,0.0000,18.2517,4.0442,-44.6387,
10.0800,-0.0461,0.0144,1.0217,0.0416,-0.0065,0.0205,0.0022,0.0096,0.0000,18.2517,4.0442,-44.6387,
10.0810,-0.0461,0.0144,1.0217,0.0416,-0.0065,0.0205,0.0101,0.0117,-0.0015,18.2517,4.0442,-44.6387,
10.0820,-0.0462,0.0146,1.0228,0.0416,-0.0065,0.0205,0.0101,0.0117,-0.0015,18.2517,4.0442,-44.6387,
10.0820,-0.0462,0.0146,1.0228,-0.0044,0.0108,-0.0295,0.0101,0.0117,-0.0015,18.2517,4.0442,-44.6387,
10.0880,-0.0462,0.0146,1.0228,-0.0044,0.0108,-0.0295,0.0101,0.0117,-0.0015,18.2391,4.0559,-44.5614,
10.1100,-0.0435,0.0147,1.0217,-0.0044,0.0108,-0.0295,0.0101,0.0117,-0.0015,18.2391,4.0559,-44.5614,
10.1110,-0.0435,0.0147,1.0217,-0.0044,0.0108,-0.0295,0.0068,0.0102,-0.0012,18.2391,4.0559,-44.5614,
10.1390,-0.0435,0.0147,1.0217,-0.0044,0.0108,-0.0295,0.0040,-0.0005,0.0003,18.2391,4.0559,-44.5614,
10.1400,-0.0429,0.0149,1.0235,-0.0044,0.0108,-0.0295,0.0040,-0.0005,0.0003,18.2391,4.0559,-44.5614,
10.1400,-0.0398,0.0136,1.0240,-0.0044,0.0108,-0.0295,0.0040,-0.0005,0.0003,18.2391,4.0559,-44.5614,
10.1410,-0.0398,0.0136,1.0240,-0.0476,-0.0083,-0.0100,0.0040,-0.0005,0.0003,18.2391,4.0559,-44.5614,
10.1540,-0.0398,0.0136,1.0240,-0.0476,-0.0083,-0.0100,0.0040,-0.0005,0.0003,18.2753,4.0583,-44.5342,
10.1770,-0.0406,0.0124,1.0250,-0.0476,-0.0083,-0.0100,0.0040,-0.0005,0.0003,18.2753,4.0583,-44.5342,
10.2180,-0.0406,0.0124,1.0250,-0.0061,-0.0101,0.0014,0.0040,-0.0005,0.0003,18.2753,4.0583,-44.5342,
10.2190,-0.0406,0.0124,1.0250,-0.0061,-0.0101,0.0014,0.0074,0.0074,0.0000,18.2753,4.0583,-44.5342,
10.2190,-0.0406,0.0124,1.0250,-0.0061,-0.0101,0.0014,0.0068,0.0059,-0.0015,18.2753,4.0583,-44.5342,
10.2200,-0.0379,0.0133,1.0201,-0.0061,-0.0101,0.0014,0.0068,0.0059,-0.0015,18.2753,4.0583,-44.5342,
10.2200,-0.0415,0.0140,1.0207,-0.0061,-0.0101,0.0014,0.0068,0.0059,-0.0015,18.2753,4.0583,-44.5342,
10.2200,-0.0404,0.0143,1.0235,-0.0061,-0.0101,0.0014,0.0068,0.0059,-0.0015,18.2753,4.0583,-44.5342,
10.2210,-0.0404,0.0143,1.0235,-0.0061,-0.0101,0.0014,0.0068,0.0059,-0.0015,18.3106,4.0411,-44.5084,
10.2460,-0.0360,0.0153,1.0197,-0.0061,-0.0101,0.0014,0.0068,0.0059,-0.0015,18.3106,4.0411,-44.5084,
10.2750,-0.0402,0.0169,1.0301,-0.0061,-0.0101,0.0014,0.0068,0.0059,-0.0015,18.3106,4.0411,-44.5084,
10.2760,-0.0402,0.0169,1.0301,-0.0061,-0.0101,0.0014,-0.0103,0.0141,-0.0012,18.3106,4.0411,-44.5084,
10.2770,-0.0428,0.0143,1.0191,-0.0061,-0.0101,0.0014,-0.0103,0.0141,-0.0012,18.3106,4.0411,-44.5084,
10.2770,-0.0428,0.0143,1.0191,0.0250,-0.0224,-0.0069,-0.0103,0.0141,-0.0012,18.3106,4.0411,-44.5084,
10.2880,-0.0428,0.0143,1.0191,0.0250,-0.0224,-0.0069,-0.0103,0.0141,-0.0012,18.3578,4.0138,-44.5084,
10.3110,-0.0479,0.0088,1.0177,0.0250,-0.0224,-0.0069,-0.0103,0.0141,-0.0012,18.3578,4.0138,-44.5084,
10.3130,-0.0479,0.0088,1.0177,0.0250,-0.0224,-0.0069,0.0504,0.0196,0.0022,18.3578,4.0138,-44.5084,
10.3530,-0.0487,0.0163,1.0051,0.0250,-0.0224,-0.0069,0.0504,0.0196,0.0022,18.3578,4.0138,-44.5084,
10.3540,-0.0487,0.0163,1.0051,0.0250,-0.0224,-0.0069,-0.0247,-0.0023,-0.0024,18.3578,4.0138,-44.5084,
10.3550,-0.0473,0.0204,1.0365,0.0250,-0.0224,-0.0069,-0.0247,-0.0023,-0.0024,18.3578,4.0138,-44.5084,
10.3550,-0.0425,0.0160,1.0177,0.0250,-0.0224,-0.0069,-0.0247,-0.0023,-0.0024,18.3578,4.0138,-44.5084,
10.3550,-0.0425,0.0160,1.0177,0.0103,-0.0106,0.0234,-0.0247,-0.0023,-0.0024,18.3578,4.0138,-44.5084,
10.3560,-0.0425,0.0160,1.0177,0.0103,-0.0106,0.0234,-0.0247,-0.0023,-0.0024,18.3936,4.0065,-44.4819,
10.3780,-0.0376,0.0151,1.0213,0.0103,-0.0106,0.0234,-0.0247,-0.0023,-0.0024,18.3936,4.0065,-44.4819,
10.3800,-0.0376,0.0151,1.0213,0.0103,-0.0106,0.0234,0.0052,-0.0234,-0.0006,18.3936,4.0065,-44.4819,
10.4130,-0.0373,0.0153,1.0306,0.0103,-0.0106,0.0234,0.0052,-0.0234,-0.0006,18.3936,4.0065,-44.4819,
10.4150,-0.0373,0.0153,1.0306,0.0103,-0.0106,0.0234,0.0031,0.0053,0.0015,18.3936,4.0065,-44.4819,
10.4160,-0.0369,0.0122,1.0238,0.0103,-0.0106,0.0234,0.0031,0.0053,0.0015,18.3936,4.0065,-44.4819,
10.4170,-0.0369,0.0122,1.0238,-0.0451,0.0054,-0.0617,0.0031,0.0053,0.0015,18.3936,4.0065,-44.4819,
10.4210,-0.0369,0.0122,1.0238,-0.0451,0.0054,-0.0617,0.0031,0.0053,0.0015,18.4786,4.0111,-44.4530,
10.4430,-0.0406,0.0111,1.0279,-0.0451,0.0054,-0.0617,0.0031,0.0053,0.0015,18.4786,4.0111,-44.4530,
10.4890,-0.0406,0.0111,1.0279,-0.0451,0.0054,-0.0617,0.0022,0.0022,0.0000,18.4786,4.0111,-44.4530,
10.4900,-0.0451,0.0170,1.0262,-0.0451,0.0054,-0.0617,0.0022,0.0022,0.0000,18.4786,4.0111,-44.4530,
10.4900,-0.0465,0.0206,1.0174,-0.0451,0.0054,-0.0617,0.0022,0.0022,0.0000,18.4786,4.0111,-44.4530,
10.4910,-0.0465,0.0206,1.0174,-0.0451,0.0054,-0.0617,0.0022,0.0022,0.0000,18.4420,3.9984,-44.4936,
10.4920,-0.0445,0.0198,1.0191,-0.0451,0.0054,-0.0617,0.0022,0.0022,0.0000,18.4420,3.9984,-44.4936,
10.4920,-0.0445,0.0198,1.0191,-0.0451,0.0054,-0.0617,0.0037,-0.0045,0.0003,18.4420,3.9984,-44.4936,
10.4930,-0.0445,0.0198,1.0191,0.0369,-0.0217,0.0272,0.0037,-0.0045,0.0003,18.4420,3.9984,-44.4936,
10.5090,-0.0458,0.0174,1.0228,0.0369,-0.0217,0.0272,0.0037,-0.0045,0.0003,18.4420,3.9984,-44.4936,
10.5510,-0.0458,0.0174,1.0228,-0.0340,0.0240,-0.0067,0.0037,-0.0045,0.0003,18.4420,3.9984,-44.4936,
10.5520,-0.0458,0.0174,1.0228,-0.0340,0.0240,-0.0067,-0.0048,-0.0051,-0.0012,18.4420,3.9984,-44.4936,
10.5530,-0.0474,0.0146,1.0242,-0.0340,0.0240,-0.0067,-0.0048,-0.0051,-0.0012,18.4420,3.9984,-44.4936,
10.5530,-0.0436,0.0138,1.0207,-0.0340,0.0240,-0.0067,-0.0048,-0.0051,-0.0012,18.4420,3.9984,-44.4936,
10.5540,-0.0436,0.0138,1.0207,-0.0340,0.0240,-0.0067,-0.0048,-0.0051,-0.0012,18.4537,3.9891,-44.4938,
10.5780,-0.0415,0.0142,1.0206,-0.0340,0.0240,-0.0067,-0.0048,-0.0051,-0.0012,18.4537,3.9891,-44.4938,
10.5800,-0.0415,0.0142,1.0206,-0.0340,0.0240,-0.0067,-0.0045,-0.0072,0.0003,18.4537,3.9891,-44.4938,
10.6220,-0.0415,0.0142,1.0206,-0.0340,0.0240,-0.0067,-0.0045,-0.0072,0.0003,18.4904,3.9794,-44.5445,
10.6230,-0.0408,0.0163,1.0258,-0.0340,0.0240,-0.0067,-0.0045,-0.0072,0.0003,18.4904,3.9794,-44.5445,
10.6240,-0.0408,0.0163,1.0258,-0.0340,0.0240,-0.0067,-0.0100,0.0193,0.0049,18.4904,3.9794,-44.5445,
10.6240,-0.0461,0.0122,1.0196,-0.0340,0.0240,-0.0067,-0.0100,0.0193,0.0049,18.4904,3.9794,-44.5445,
10.6260,-0.0425,0.0121,1.0246,-0.0340,0.0240,-0.0067,-0.0100,0.0193,0.0049,18.4904,3.9794,-44.5445,
10.6260,-0.0425,0.0121,1.0246,-0.0271,-0.0045,-0.0192,-0.0100,0.0193,0.0049,18.4904,3.9794,-44.5445,
10.6850,-0.0425,0.0121,1.0246,-0.0271,-0.0045,-0.0192,0.0040,-0.0069,0.0003,18.4904,3.9794,-44.5445,
10.6870,-0.0406,0.0171,1.0241,-0.0271,-0.0045,-0.0192,0.0040,-0.0069,0.0003,18.4904,3.9794,-44.5445,
10.6880,-0.0385,0.0142,1.0239,-0.0271,-0.0045,-0.0192,0.0040,-0.0069,0.0003,18.4904,3.9794,-44.5445,
10.6880,-0.0365,0.0115,1.0255,-0.0271,-0.0045,-0.0192,0.0040,-0.0069,0.0003,18.4904,3.9794,-44.5445,
10.6890,-0.0365,0.0115,1.0255,-0.0271,-0.0045,-0.0192,-0.0033,-0.0017,0.0022,18.4904,3.9794,-44.5445,
10.6890,-0.0365,0.0115,1.0255,-0.0076,-0.0129,0.0206,-0.0033,-0.0017,0.0022,18.4904,3.9794,-44.5445,
10.6900,-0.0365,0.0115,1.0255,-0.0076,-0.0129,0.0206,-0.0033,-0.0017,0.0022,18.5524,4.0017,-44.5409,
10.7130,-0.0407,0.0143,1.0238,-0.0076,-0.0129,0.0206,-0.0033,-0.0017,0.0022,18.5524,4.0017,-44.5409,
10.7560,-0.0421,0.0171,1.0219,-0.0076,-0.0129,0.0206,-0.0033,-0.0017,0.0022,18.5524,4.0017,-44.5409,
10.7580,-0.0421,0.0171,1.0219,-0.0076,-0.0129,0.0206,-0.0021,-0.0091,0.0000,18.5524,4.0017,-44.5409,
10.7580,-0.0421,0.0160,1.0247,-0.0076,-0.0129,0.0206,-0.0021,-0.0091,0.0000,18.5524,4.0017,-44.5409,
10.7590,-0.0421,0.0160,1.0247,-0.0076,-0.0129,0.0206,-0.0021,-0.0091,0.0000,18.5644,4.0027,-44.5276,
10.7640,-0.0421,0.0160,1.0247,-0.0076,-0.0129,0.0206,-0.0054,0.0062,0.0003,18.5644,4.0027,-44.5276,
10.7650,-0.0421,0.0160,1.0247,0.0294,-0.0061,0.0146,-0.0054,0.0062,0.0003,18.5644,4.0027,-44.5276,
10.7650,-0.0445,0.0153,1.0189,0.0294,-0.0061,0.0146,-0.0054,0.0062,0.0003,18.5644,4.0027,-44.5276,
10.8230,-0.0445,0.0153,1.0189,0.0294,-0.0061,0.0146,0.0025,0.0025,-0.0027,18.5644,4.0027,-44.5276,
10.8250,-0.0457,0.0155,1.0225,0.0294,-0.0061,0.0146,0.0025,0.0025,-0.0027,18.5644,4.0027,-44.5276,
10.8260,-0.0457,0.0155,1.0225,0.0294,-0.0061,0.0146,0.0025,0.0025,-0.0027,18.5629,3.9732,-44.5295,
10.8270,-0.0468,0.0148,1.0203,0.0294,-0.0061,0.0146,0.0025,0.0025,-0.0027,18.5629,3.9732,-44.5295,
10.8280,-0.0475,0.0147,1.0207,0.0294,-0.0061,0.0146,0.0025,0.0025,-0.0027,18.5629,3.9732,-44.5295,
10.8290,-0.0475,0.0147,1.0207,-0.0050,0.0096,-0.0063,0.0025,0.0025,-0.0027,18.5629,3.9732,-44.5295,
10.8430,-0.0475,0.0147,1.0207,-0.0050,0.0096,-0.0063,0.0065,0.0129,-0.0003,18.5629,3.9732,-44.5295,
10.8450,-0.0465,0.0138,1.0232,-0.0050,0.0096,-0.0063,0.0065,0.0129,-0.0003,18.5629,3.9732,-44.5295,
10.8890,-0.0465,0.0138,1.0232,-0.0050,0.0096,-0.0063,0.0077,0.0114,-0.0012,18.5629,3.9732,-44.5295,
10.8900,-0.0465,0.0138,1.0232,-0.0050,0.0096,-0.0063,0.0077,0.0114,-0.0012,18.5265,3.9712,-44.5437,
10.8910,-0.0468,0.0159,1.0256,-0.0050,0.0096,-0.0063,0.0077,0.0114,-0.0012,18.5265,3.9712,-44.5437,
10.8910,-0.0436,0.0170,1.0251,-0.0050,0.0096,-0.0063,0.0077,0.0114,-0.0012,18.5265,3.9712,-44.5437,
10.9000,-0.0415,0.0141,1.0239,-0.0050,0.0096,-0.0063,0.0077,0.0114,-0.0012,18.5265,3.9712,-44.5437,
10.9010,-0.0415,0.0141,1.0239,-0.0310,-0.0080,-0.0110,0.0077,0.0114,-0.0012,18.5265,3.9712,-44.5437,
10.9570,-0.0415,0.0141,1.0239,-0.0310,-0.0080,-0.0110,0.0117,0.0148,-0.0009,18.5265,3.9712,-44.5437,
10.9590,-0.0410,0.0129,1.0232,-0.0310,-0.0080,-0.0110,0.0117,0.0148,-0.0009,18.5265,3.9712,-44.5437,
10.9590,-0.0447,0.0144,1.0197,-0.0310,-0.0080,-0.0110,0.0117,0.0148,-0.0009,18.5265,3.9712,-44.5437,
10.9600,-0.0447,0.0144,1.0197,-0.0310,-0.0080,-0.0110,0.0117,0.0148,-0.0009,18.5034,3.9889,-44.5691,
10.9610,-0.0447,0.0144,1.0197,-0.0310,-0.0080,-0.0110,0.0129,0.0203,-0.0021,18.5034,3.9889,-44.5691,
10.9620,-0.0439,0.0159,1.0241,-0.0310,-0.0080,-0.0110,0.0129,0.0203,-0.0021,18.5034,3.9889,-44.5691,
10.9630,-0.0439,0.0159,1.0241,0.0046,-0.0090,0.0182,0.0129,0.0203,-0.0021,18.5034,3.9889,-44.5691,
11.0230,-0.0439,0.0159,1.0241,0.0046,-0.0090,0.0182,0.0001,0.0264,-0.0049,18.5034,3.9889,-44.5691,
11.0250,-0.0420,0.0174,1.0190,0.0046,-0.0090,0.0182,0.0001,0.0264,-0.0049,18.5034,3.9889,-44.5691,
11.0250,-0.0451,0.0188,1.0253,0.0046,-0.0090,0.0182,0.0001,0.0264,-0.0049,18.5034,3.9889,-44.5691,
11.0260,-0.0469,0.0169,1.0294,0.0046,-0.0090,0.0182,0.0001,0.0264,-0.0049,18.5034,3.9889,-44.5691,
11.0260,-0.0469,0.0169,1.0294,0.0046,-0.0090,0.0182,0.0001,0.0264,-0.0049,18.5766,3.9811,-44.6056,
11.0380,-0.0505,0.0094,1.0278,0.0046,-0.0090,0.0182,0.0001,0.0264,-0.0049,18.5766,3.9811,-44.6056,
11.0390,-0.0505,0.0094,1.0278,0.0350,-0.0277,-0.0055,0.0001,0.0264,-0.0049,18.5766,3.9811,-44.6056,
11.0400,-0.0505,0.0094,1.0278,0.0350,-0.0277,-0.0055,0.0404,0.0355,-0.0015,18.5766,3.9811,-44.6056,
11.0890,-0.0505,0.0094,1.0278,0.0350,-0.0277,-0.0055,-0.0164,0.0001,-0.0052,18.5766,3.9811,-44.6056,
11.0900,-0.0531,0.0122,0.9893,0.0350,-0.0277,-0.0055,-0.0164,0.0001,-0.0052,18.5766,3.9811,-44.6056,
11.0910,-0.0503,0.0207,1.0307,0.0350,-0.0277,-0.0055,-0.0164,0.0001,-0.0052,18.5766,3.9811,-44.6056,
11.0910,-0.0503,0.0207,1.0307,0.0350,-0.0277,-0.0055,-0.0164,0.0001,-0.0052,18.6130,3.9832,-44.5913,
11.0950,-0.0503,0.0207,1.0307,-0.0025,-0.0131,0.0311,-0.0164,0.0001,-0.0052,18.6130,3.9832,-44.5913,
11.0950,-0.0505,0.0175,1.0316,-0.0025,-0.0131,0.0311,-0.0164,0.0001,-0.0052,18.6130,3.9832,-44.5913,
11.1560,-0.0505,0.0175,1.0316,-0.0025,-0.0131,0.0311,0.0052,-0.0106,-0.0024,18.6130,3.9832,-44.5913,
11.1570,-0.0445,0.0131,1.0101,-0.0025,-0.0131,0.0311,0.0052,-0.0106,-0.0024,18.6130,3.9832,-44.5913,
11.1580,-0.0445,0.0131,1.0101,-0.0025,-0.0131,0.0311,0.0052,-0.0106,-0.0024,18.6473,3.9574,-44.5275,
11.1590,-0.0445,0.0131,1.0101,-0.0025,-0.0131,0.0311,-0.0070,0.0050,0.0012,18.6473,3.9574,-44.5275,
11.1590,-0.0412,0.0138,1.0275,-0.0025,-0.0131,0.0311,-0.0070,0.0050,0.0012,18.6473,3.9574,-44.5275,
11.1600,-0.0419,0.0135,1.0282,-0.0025,-0.0131,0.0311,-0.0070,0.0050,0.0012,18.6473,3.9574,-44.5275,
11.1730,-0.0419,0.0135,1.0282,-0.0345,-0.0027,-0.0589,-0.0070,0.0050,0.0012,18.6473,3.9574,-44.5275,
11.1760,-0.0436,0.0116,1.0262,-0.0345,-0.0027,-0.0589,-0.0070,0.0050,0.0012,18.6473,3.9574,-44.5275,
11.2240,-0.0436,0.0116,1.0262,-0.0345,-0.0027,-0.0589,-0.0012,0.0025,0.0000,18.6473,3.9574,-44.5275,
11.2260,-0.0436,0.0116,1.0262,-0.0345,-0.0027,-0.0589,-0.0012,0.0025,0.0000,18.6962,3.9591,-44.5385,
11.2270,-0.0485,0.0177,1.0286,-0.0345,-0.0027,-0.0589,-0.0012,0.0025,0.0000,18.6962,3.9591,-44.5385,
11.2280,-0.0519,0.0219,1.0180,-0.0345,-0.0027,-0.0589,-0.0012,0.0025,0.0000,18.6962,3.9591,-44.5385,
11.2310,-0.0519,0.0219,1.0180,-0.0345,-0.0027,-0.0589,0.0001,-0.0026,-0.0015,18.6962,3.9591,-44.5385,
11.2320,-0.0519,0.0219,1.0180,0.0398,-0.0292,0.0226,0.0001,-0.0026,-0.0015,18.6962,3.9591,-44.5385,
11.2330,-0.0522,0.0209,1.0192,0.0398,-0.0292,0.0226,0.0001,-0.0026,-0.0015,18.6962,3.9591,-44.5385,
11.2920,-0.0520,0.0163,1.0250,0.0398,-0.0292,0.0226,0.0001,-0.0026,-0.0015,18.6962,3.9591,-44.5385,
11.2940,-0.0528,0.0141,1.0253,0.0398,-0.0292,0.0226,0.0001,-0.0026,-0.0015,18.6962,3.9591,-44.5385,
11.2940,-0.0528,0.0141,1.0253,0.0398,-0.0292,0.0226,-0.0079,-0.0014,-0.0036,18.6962,3.9591,-44.5385,
11.2950,-0.0528,0.0141,1.0253,0.0398,-0.0292,0.0226,-0.0079,-0.0014,-0.0036,18.7690,3.9522,-44.5492,
11.3090,-0.0528,0.0141,1.0253,0.0398,-0.0292,0.0226,-0.0039,-0.0103,-0.0033,18.7690,3.9522,-44.5492,
11.3110,-0.0527,0.0153,1.0229,0.0398,-0.0292,0.0226,-0.0039,-0.0103,-0.0033,18.7690,3.9522,-44.5492,
11.3110,-0.0489,0.0162,1.0129,0.0398,-0.0292,0.0226,-0.0039,-0.0103,-0.0033,18.7690,3.9522,-44.5492,
11.3120,-0.0489,0.0162,1.0129,-0.0450,0.0358,-0.0026,-0.0039,-0.0103,-0.0033,18.7690,3.9522,-44.5492,
11.3570,-0.0489,0.0162,1.0129,-0.0450,0.0358,-0.0026,-0.0116,-0.0002,0.0000,18.7690,3.9522,-44.5492,
11.3590,-0.0458,0.0163,1.0340,-0.0450,0.0358,-0.0026,-0.0116,-0.0002,0.0000,18.7690,3.9522,-44.5492,
11.3590,-0.0458,0.0163,1.0340,-0.0450,0.0358,-0.0026,-0.0116,-0.0002,0.0000,18.7697,3.9616,-44.5615,
11.3600,-0.0436,0.0142,1.0159,-0.0450,0.0358,-0.0026,-0.0116,-0.0002,0.0000,18.7697,3.9616,-44.5615,
11.3710,-0.0484,0.0121,1.0192,-0.0450,0.0358,-0.0026,-0.0116,-0.0002,0.0000,18.7697,3.9616,-44.5615,
11.3720,-0.0484,0.0121,1.0192,-0.0439,-0.0069,-0.0115,-0.0116,-0.0002,0.0000,18.7697,3.9616,-44.5615,
