
time,gFx,gFy,gFz,ax,ay,az,wx,wy,wz,Bx,By,Bz,
0.0490,-0.0246,0.0016,1.0202,0.0000,0.0000,0.0000,0.0000,0.0000,0.0000,0.0000,0.0000,0.0000,
0.0490,-0.0246,0.0016,1.0202,0.0000,0.0000,0.0000,0.0010,-0.0215,0.0025,0.0000,0.0000,0.0000,
0.0910,-0.0109,0.0027,1.0442,0.0000,0.0000,0.0000,0.0010,-0.0215,0.0025,0.0000,0.0000,0.0000,
0.0920,-0.0109,0.0027,1.0442,0.0000,0.0000,0.0000,0.0196,-0.0142,0.0135,0.0000,0.0000,0.0000,
0.0930,-0.0109,0.0085,1.0146,0.0000,0.0000,0.0000,0.0196,-0.0142,0.0135,0.0000,0.0000,0.0000,
0.1130,-0.0180,0.0016,1.0166,0.0000,0.0000,0.0000,0.0196,-0.0142,0.0135,0.0000,0.0000,0.0000,
0.1550,-0.0281,-0.0024,1.0153,0.0000,0.0000,0.0000,0.0196,-0.0142,0.0135,0.0000,0.0000,0.0000,
0.1560,-0.0281,-0.0024,1.0153,0.0000,0.0000,0.0000,-0.0100,0.0084,0.0062,0.0000,0.0000,0.0000,
0.1570,-0.0281,-0.0024,1.0153,0.0000,0.0000,0.0000,0.0190,-0.0023,0.0004,0.0000,0.0000,0.0000,
0.1570,-0.0167,-0.0103,1.0449,0.0000,0.0000,0.0000,0.0190,-0.0023,0.0004,0.0000,0.0000,0.0000,
0.1580,-0.0070,-0.0118,1.0196,0.0000,0.0000,0.0000,0.0190,-0.0023,0.0004,0.0000,0.0000,0.0000,
0.1590,-0.0070,-0.0118,1.0196,0.0000,0.0000,0.0000,0.0190,-0.0023,0.0004,0.0000,0.0000,0.0000,
0.1590,-0.0070,-0.0118,1.0196,0.0000,0.0000,0.0000,0.0190,-0.0023,0.0004,-0.9834,18.4329,-44.7779,
0.1790,-0.0237,0.0080,0.9820,0.0000,0.0000,0.0000,0.0190,-0.0023,0.0004,-0.9834,18.4329,-44.7779,
0.2240,-0.0180,0.0063,1.0409,0.0000,0.0000,0.0000,0.0190,-0.0023,0.0004,-0.9834,18.4329,-44.7779,
0.2260,-0.0180,0.0063,1.0409,0.0000,0.0000,0.0000,0.0190,-0.0023,0.0004,-0.7533,18.1998,-44.5780,
0.2270,-0.0180,0.0063,1.0409,0.0000,0.0000,0.0000,-0.0289,0.0029,-0.0116,-0.7533,18.1998,-44.5780,
0.2270,-0.0105,-0.0121,1.0494,0.0000,0.0000,0.0000,-0.0289,0.0029,-0.0116,-0.7533,18.1998,-44.5780,
0.2330,-0.0105,-0.0121,1.0494,0.0000,0.0000,0.0000,0.0074,-0.0154,-0.0036,-0.7533,18.1998,-44.5780,
0.2340,-0.0105,-0.0121,1.0494,-0.0216,-0.0447,-0.0409,0.0074,-0.0154,-0.0036,-0.7533,18.1998,-44.5780,
0.2350,-0.0239,-0.0189,1.0574,-0.0216,-0.0447,-0.0409,0.0074,-0.0154,-0.0036,-0.7533,18.1998,-44.5780,
0.2920,-0.0239,-0.0189,1.0574,-0.0216,-0.0447,-0.0409,0.0245,-0.0737,-0.0027,-0.7533,18.1998,-44.5780,
0.2930,-0.0448,-0.0122,1.0115,-0.0216,-0.0447,-0.0409,0.0245,-0.0737,-0.0027,-0.7533,18.1998,-44.5780,
0.2940,-0.0418,-0.0084,0.9889,-0.0216,-0.0447,-0.0409,0.0245,-0.0737,-0.0027,-0.7533,18.1998,-44.5780,
0.2950,0.0072,-0.0038,1.0232,-0.0216,-0.0447,-0.0409,0.0245,-0.0737,-0.0027,-0.7533,18.1998,-44.5780,
0.2950,0.0072,-0.0038,1.0232,-0.0216,-0.0447,-0.0409,0.0245,-0.0737,-0.0027,-0.7831,18.2507,-44.5759,
0.2970,0.0072,-0.0038,1.0232,-0.0498,-0.0382,0.1132,0.0245,-0.0737,-0.0027,-0.7831,18.2507,-44.5759,
0.3130,0.0352,0.0064,1.0580,-0.0498,-0.0382,0.1132,0.0245,-0.0737,-0.0027,-0.7831,18.2507,-44.5759,
0.3140,0.0352,0.0064,1.0580,-0.0498,-0.0382,0.1132,0.0541,-0.0600,-0.0204,-0.7831,18.2507,-44.5759,
0.3570,0.0066,0.0083,1.0172,-0.0498,-0.0382,0.1132,0.0541,-0.0600,-0.0204,-0.7831,18.2507,-44.5759,
0.3580,0.0066,0.0083,1.0172,-0.0498,-0.0382,0.1132,0.0780,-0.0719,-0.0571,-0.7831,18.2507,-44.5759,
0.3590,-0.0145,0.0043,1.0311,-0.0498,-0.0382,0.1132,0.0780,-0.0719,-0.0571,-0.7831,18.2507,-44.5759,
0.3600,-0.0145,0.0043,1.0311,-0.0498,-0.0382,0.1132,0.0780,-0.0719,-0.0571,-0.9755,18.1523,-44.5374,
0.3700,-0.0056,0.0225,1.0291,-0.0498,-0.0382,0.1132,0.0780,-0.0719,-0.0571,-0.9755,18.1523,-44.5374,
0.3710,-0.0056,0.0225,1.0291,-0.0591,-0.0814,-0.0998,0.0780,-0.0719,-0.0571,-0.9755,18.1523,-44.5374,
0.4240,0.0136,0.0427,1.0068,-0.0591,-0.0814,-0.0998,0.0780,-0.0719,-0.0571,-0.9755,18.1523,-44.5374,
0.4250,0.0203,0.0283,1.0697,-0.0591,-0.0814,-0.0998,0.0780,-0.0719,-0.0571,-0.9755,18.1523,-44.5374,
0.4260,0.0203,0.0283,1.0697,-0.0591,-0.0814,-0.0998,0.0777,-0.0218,-0.0619,-0.9755,18.1523,-44.5374,
0.4270,0.0203,0.0283,1.0697,-0.0591,-0.0814,-0.0998,0.0777,-0.0218,-0.0619,-1.0135,18.0628,-44.5957,
0.4280,0.0203,0.0283,1.0697,0.0951,0.0543,0.0316,0.0777,-0.0218,-0.0619,-1.0135,18.0628,-44.5957,
0.4280,0.0016,0.0080,1.0052,0.0951,0.0543,0.0316,0.0777,-0.0218,-0.0619,-1.0135,18.0628,-44.5957,
0.4290,0.0016,0.0080,1.0052,0.0951,0.0543,0.0316,0.0346,0.0057,-0.0531,-1.0135,18.0628,-44.5957,
0.4900,-0.0392,0.0111,0.9998,0.0951,0.0543,0.0316,0.0346,0.0057,-0.0531,-1.0135,18.0628,-44.5957,
0.4920,-0.0503,0.0228,1.0594,0.0951,0.0543,0.0316,0.0346,0.0057,-0.0531,-1.0135,18.0628,-44.5957,
0.4930,-0.0266,0.0263,1.0285,0.0951,0.0543,0.0316,0.0346,0.0057,-0.0531,-1.0135,18.0628,-44.5957,
0.4930,-0.0266,0.0263,1.0285,0.0951,0.0543,0.0316,0.0169,-0.0603,-0.0885,-1.0135,18.0628,-44.5957,
0.4940,-0.0266,0.0263,1.0285,0.0951,0.0543,0.0316,0.0169,-0.0603,-0.0885,-1.0557,18.0040,-44.5837,
0.5060,-0.0313,0.0119,1.0434,0.0951,0.0543,0.0316,0.0169,-0.0603,-0.0885,-1.0557,18.0040,-44.5837,
0.5070,-0.0313,0.0119,1.0434,0.0568,0.1297,-0.0468,0.0169,-0.0603,-0.0885,-1.0557,18.0040,-44.5837,
0.5080,-0.0313,0.0119,1.0434,0.0568,0.1297,-0.0468,0.0425,-0.1345,-0.0632,-1.0557,18.0040,-44.5837,
0.5570,-0.0657,0.0053,1.0481,0.0568,0.1297,-0.0468,0.0425,-0.1345,-0.0632,-1.0557,18.0040,-44.5837,
0.5580,-0.0657,0.0053,1.0481,0.0568,0.1297,-0.0468,0.0349,-0.1763,-0.0241,-1.0557,18.0040,-44.5837,
0.5590,-0.0976,0.0185,0.9405,0.0568,0.1297,-0.0468,0.0349,-0.1763,-0.0241,-1.0557,18.0040,-44.5837,
0.5600,-0.0976,0.0185,0.9405,0.0568,0.1297,-0.0468,0.0349,-0.1763,-0.0241,-1.1701,17.9470,-44.5790,
0.5650,-0.0529,0.0181,1.0367,0.0568,0.1297,-0.0468,0.0349,-0.1763,-0.0241,-1.1701,17.9470,-44.5790,
0.5660,-0.0529,0.0181,1.0367,-0.3981,0.0768,0.1203,0.0349,-0.1763,-0.0241,-1.1701,17.9470,-44.5790,
0.6240,0.0197,0.0015,1.0473,-0.3981,0.0768,0.1203,0.0349,-0.1763,-0.0241,-1.1701,17.9470,-44.5790,
0.6260,0.0197,0.0015,1.0473,-0.3981,0.0768,0.1203,-0.0326,-0.0914,0.0712,-1.1701,17.9470,-44.5790,
0.6270,0.0197,0.0015,1.0473,-0.3981,0.0768,0.1203,-0.0280,-0.0985,0.0804,-1.1701,17.9470,-44.5790,
0.6270,0.0197,0.0015,1.0473,-0.3981,0.0768,0.1203,-0.0280,-0.0985,0.0804,-1.3174,17.8918,-44.5784,
0.6280,-0.0029,0.0027,0.9984,-0.3981,0.0768,0.1203,-0.0280,-0.0985,0.0804,-1.3174,17.8918,-44.5784,
0.6290,-0.0143,0.0016,1.0869,-0.3981,0.0768,0.1203,-0.0280,-0.0985,0.0804,-1.3174,17.8918,-44.5784,
0.6430,0.0006,0.0168,1.0217,-0.3981,0.0768,0.1203,-0.0280,-0.0985,0.0804,-1.3174,17.8918,-44.5784,
0.6440,0.0006,0.0168,1.0217,-0.6029,0.0128,-0.0683,-0.0280,-0.0985,0.0804,-1.3174,17.8918,-44.5784,
0.6900,0.0068,0.0198,1.0547,-0.6029,0.0128,-0.0683,-0.0280,-0.0985,0.0804,-1.3174,17.8918,-44.5784,
0.6910,0.0068,0.0198,1.0547,-0.6029,0.0128,-0.0683,-0.0115,-0.1492,0.1201,-1.3174,17.8918,-44.5784,
0.6920,0.0316,0.0048,1.0427,-0.6029,0.0128,-0.0683,-0.0115,-0.1492,0.1201,-1.3174,17.8918,-44.5784,
0.6930,0.0316,0.0048,1.0427,-0.6029,0.0128,-0.0683,-0.0115,-0.1492,0.1201,-1.6021,17.8122,-44.5420,
0.7020,0.0316,0.0048,1.0427,-0.1031,-0.0454,0.0441,-0.0115,-0.1492,0.1201,-1.6021,17.8122,-44.5420,
0.7030,0.0316,0.0048,1.0427,-0.1031,-0.0454,0.0441,0.0187,-0.1165,0.1363,-1.6021,17.8122,-44.5420,
0.7030,0.0569,-0.0020,1.0223,-0.1031,-0.0454,0.0441,0.0187,-0.1165,0.1363,-1.6021,17.8122,-44.5420,
0.7570,0.0616,0.0015,0.9913,-0.1031,-0.0454,0.0441,0.0187,-0.1165,0.1363,-1.6021,17.8122,-44.5420,
0.7580,0.0616,0.0015,0.9913,-0.1031,-0.0454,0.0441,-0.0039,-0.0951,0.1128,-1.6021,17.8122,-44.5420,
0.7590,0.0668,0.0003,1.0481,-0.1031,-0.0454,0.0441,-0.0039,-0.0951,0.1128,-1.6021,17.8122,-44.5420,
0.7600,0.0668,0.0003,1.0481,-0.1031,-0.0454,0.0441,-0.0039,-0.0951,0.1128,-1.9116,17.6992,-44.5984,
0.7800,0.0463,0.0088,1.0332,-0.1031,-0.0454,0.0441,-0.0039,-0.0951,0.1128,-1.9116,17.6992,-44.5984,
0.7810,0.0277,0.0312,0.9709,-0.1031,-0.0454,0.0441,-0.0039,-0.0951,0.1128,-1.9116,17.6992,-44.5984,
0.7820,0.0277,0.0312,0.9709,0.1813,-0.0431,0.0362,-0.0039,-0.0951,0.1128,-1.9116,17.6992,-44.5984,
0.7820,0.0277,0.0312,0.9709,0.1813,-0.0431,0.0362,0.0300,-0.0679,0.0966,-1.9116,17.6992,-44.5984,
0.8240,0.0449,0.0347,1.0030,0.1813,-0.0431,0.0362,0.0300,-0.0679,0.0966,-1.9116,17.6992,-44.5984,
0.8250,0.0449,0.0347,1.0030,0.1813,-0.0431,0.0362,0.0300,-0.0679,0.0966,-2.1966,17.5869,-44.6667,
0.8260,0.0449,0.0347,1.0030,0.1813,-0.0431,0.0362,-0.0583,-0.0227,0.1314,-2.1966,17.5869,-44.6667,
0.8270,0.0575,0.0176,1.0324,0.1813,-0.0431,0.0362,-0.0583,-0.0227,0.1314,-2.1966,17.5869,-44.6667,
0.8380,0.0575,0.0176,1.0324,0.2597,0.0335,-0.1058,-0.0583,-0.0227,0.1314,-2.1966,17.5869,-44.6667,
0.8390,0.0456,0.0027,1.0299,0.2597,0.0335,-0.1058,-0.0583,-0.0227,0.1314,-2.1966,17.5869,-44.6667,
0.8910,0.0256,0.0142,1.0357,0.2597,0.0335,-0.1058,-0.0583,-0.0227,0.1314,-2.1966,17.5869,-44.6667,
0.8920,0.0256,0.0142,1.0357,0.2597,0.0335,-0.1058,-0.0354,-0.0352,0.0847,-2.1966,17.5869,-44.6667,
0.8930,0.0256,0.0142,1.0357,0.2597,0.0335,-0.1058,-0.0354,-0.0352,0.0847,-2.4253,17.6245,-44.7109,
0.8940,0.0106,0.0191,1.0100,0.2597,0.0335,-0.1058,-0.0354,-0.0352,0.0847,-2.4253,17.6245,-44.7109,
0.9120,0.0106,0.0191,1.0100,0.2597,0.0335,-0.1058,-0.1084,-0.0581,0.1231,-2.4253,17.6245,-44.7109,
0.9130,0.0211,0.0087,1.0377,0.2597,0.0335,-0.1058,-0.1084,-0.0581,0.1231,-2.4253,17.6245,-44.7109,
0.9160,0.0498,-0.0218,1.0532,0.2597,0.0335,-0.1058,-0.1084,-0.0581,0.1231,-2.4253,17.6245,-44.7109,
0.9170,0.0498,-0.0218,1.0532,0.1791,0.1299,-0.0251,-0.1084,-0.0581,0.1231,-2.4253,17.6245,-44.7109,
0.9570,0.0391,-0.0351,1.0361,0.1791,0.1299,-0.0251,-0.1084,-0.0581,0.1231,-2.4253,17.6245,-44.7109,
0.9580,0.0391,-0.0351,1.0361,0.1791,0.1299,-0.0251,-0.0234,-0.0566,0.0645,-2.4253,17.6245,-44.7109,
0.9590,0.0343,-0.0288,1.0415,0.1791,0.1299,-0.0251,-0.0234,-0.0566,0.0645,-2.4253,17.6245,-44.7109,
0.9590,0.0343,-0.0288,1.0415,0.1791,0.1299,-0.0251,-0.0234,-0.0566,0.0645,-2.6913,17.6624,-44.6922,
0.9770,0.0371,-0.0085,1.0185,0.1791,0.1299,-0.0251,-0.0234,-0.0566,0.0645,-2.6913,17.6624,-44.6922,
0.9780,0.0371,-0.0085,1.0185,0.1791,0.1299,-0.0251,0.0068,-0.0264,0.0346,-2.6913,17.6624,-44.6922,
0.9790,0.0371,-0.0085,1.0185,-0.0418,-0.0005,0.0761,0.0068,-0.0264,0.0346,-2.6913,17.6624,-44.6922,
1.0240,0.0371,-0.0085,1.0185,-0.0418,-0.0005,0.0761,0.0169,0.0573,0.0110,-2.6913,17.6624,-44.6922,
1.0250,0.0507,0.0092,1.0028,-0.0418,-0.0005,0.0761,0.0169,0.0573,0.0110,-2.6913,17.6624,-44.6922,
1.0260,0.0507,0.0092,1.0028,-0.0418,-0.0005,0.0761,0.0169,0.0573,0.0110,-2.8971,17.6936,-44.6589,
1.0270,0.0740,0.0043,1.0352,-0.0418,-0.0005,0.0761,0.0169,0.0573,0.0110,-2.8971,17.6936,-44.6589,
1.0460,0.0546,0.0081,1.0159,-0.0418,-0.0005,0.0761,0.0169,0.0573,0.0110,-2.8971,17.6936,-44.6589,
1.0530,0.0546,0.0081,1.0159,-0.0418,-0.0005,0.0761,0.0111,0.1025,-0.0177,-2.8971,17.6936,-44.6589,
1.0560,0.0304,0.0181,1.0169,-0.0418,-0.0005,0.0761,0.0111,0.1025,-0.0177,-2.8971,17.6936,-44.6589,
1.0570,0.0304,0.0181,1.0169,0.1157,-0.2152,0.0073,0.0111,0.1025,-0.0177,-2.8971,17.6936,-44.6589,
1.0910,0.0136,0.0218,1.0420,0.1157,-0.2152,0.0073,0.0111,0.1025,-0.0177,-2.8971,17.6936,-44.6589,
1.0920,0.0136,0.0218,1.0420,0.1157,-0.2152,0.0073,0.0111,0.1025,-0.0177,-3.0408,17.7472,-44.6221,
1.1130,0.0136,0.0218,1.0420,0.2658,0.0789,-0.0609,0.0111,0.1025,-0.0177,-3.0408,17.7472,-44.6221,
1.1140,-0.0023,0.0259,1.0236,0.2658,0.0789,-0.0609,0.0111,0.1025,-0.0177,-3.0408,17.7472,-44.6221,
1.1150,0.0050,0.0308,1.0185,0.2658,0.0789,-0.0609,0.0111,0.1025,-0.0177,-3.0408,17.7472,-44.6221,
1.1160,0.0050,0.0308,1.0185,0.2658,0.0789,-0.0609,0.0016,0.0625,-0.0057,-3.0408,17.7472,-44.6221,
1.1570,0.0050,0.0308,1.0185,0.2658,0.0789,-0.0609,-0.0409,-0.0078,0.0065,-3.0408,17.7472,-44.6221,
1.1580,0.0050,0.0308,1.0185,0.2658,0.0789,-0.0609,-0.0409,-0.0078,0.0065,-3.0879,17.7851,-44.5957,
1.1590,0.0250,0.0253,1.0089,0.2658,0.0789,-0.0609,-0.0409,-0.0078,0.0065,-3.0879,17.7851,-44.5957,
1.1600,0.0370,0.0133,1.0307,0.2658,0.0789,-0.0609,-0.0409,-0.0078,0.0065,-3.0879,17.7851,-44.5957,
1.1790,0.0309,0.0061,1.0390,0.2658,0.0789,-0.0609,-0.0409,-0.0078,0.0065,-3.0879,17.7851,-44.5957,
1.1810,0.0309,0.0061,1.0390,0.2658,0.0789,-0.0609,-0.0063,-0.0013,0.0095,-3.0879,17.7851,-44.5957,
1.1910,0.0151,0.0147,1.0332,0.2658,0.0789,-0.0609,-0.0063,-0.0013,0.0095,-3.0879,17.7851,-44.5957,
1.1920,0.0151,0.0147,1.0332,-0.1746,0.2165,-0.0138,-0.0063,-0.0013,0.0095,-3.0879,17.7851,-44.5957,
1.2240,-0.0034,0.0219,1.0200,-0.1746,0.2165,-0.0138,-0.0063,-0.0013,0.0095,-3.0879,17.7851,-44.5957,
1.2250,-0.0034,0.0219,1.0200,-0.1746,0.2165,-0.0138,-0.0268,-0.0184,0.0199,-3.0879,17.7851,-44.5957,
1.2260,-0.0034,0.0219,1.0200,-0.1746,0.2165,-0.0138,-0.0268,-0.0184,0.0199,-3.0719,17.8650,-44.5645,
1.2470,0.0070,0.0142,1.0686,-0.1746,0.2165,-0.0138,-0.0268,-0.0184,0.0199,-3.0719,17.8650,-44.5645,
1.2480,0.0219,0.0037,1.0514,-0.1746,0.2165,-0.0138,-0.0268,-0.0184,0.0199,-3.0719,17.8650,-44.5645,
1.2490,0.0219,0.0037,1.0514,-0.1746,0.2165,-0.0138,0.0144,-0.0252,0.0230,-3.0719,17.8650,-44.5645,
1.2500,0.0219,0.0037,1.0514,0.0109,0.0774,0.0467,0.0144,-0.0252,0.0230,-3.0719,17.8650,-44.5645,
1.2910,0.0191,0.0087,1.0747,0.0109,0.0774,0.0467,0.0144,-0.0252,0.0230,-3.0719,17.8650,-44.5645,
1.2920,0.0191,0.0087,1.0747,0.0109,0.0774,0.0467,0.0453,-0.0447,0.0165,-3.0719,17.8650,-44.5645,
1.2930,0.0245,0.0109,1.0466,0.0109,0.0774,0.0467,0.0453,-0.0447,0.0165,-3.0719,17.8650,-44.5645,
1.2940,0.0245,0.0109,1.0466,0.0109,0.0774,0.0467,0.0453,-0.0447,0.0165,-3.0222,17.8982,-44.5093,
1.3120,0.0305,0.0096,1.0291,0.0109,0.0774,0.0467,0.0453,-0.0447,0.0165,-3.0222,17.8982,-44.5093,
1.3260,0.0305,0.0096,1.0291,0.0109,0.0774,0.0467,0.0312,-0.0536,0.0352,-3.0222,17.8982,-44.5093,
1.3270,0.0393,-0.0029,0.9871,0.0109,0.0774,0.0467,0.0312,-0.0536,0.0352,-3.0222,17.8982,-44.5093,
1.3280,0.0393,-0.0029,0.9871,-0.1779,0.0406,0.2140,0.0312,-0.0536,0.0352,-3.0222,17.8982,-44.5093,
1.3580,0.0467,-0.0216,0.9661,-0.1779,0.0406,0.2140,0.0312,-0.0536,0.0352,-3.0222,17.8982,-44.5093,
1.3590,0.0467,-0.0216,0.9661,-0.1779,0.0406,0.2140,0.0312,-0.0536,0.0352,-3.0566,17.9575,-44.4425,
1.3800,0.0467,-0.0216,0.9661,-0.1779,0.0406,0.2140,-0.0399,-0.0206,0.0071,-3.0566,17.9575,-44.4425,
1.3820,0.0468,-0.0503,1.0056,-0.1779,0.0406,0.2140,-0.0399,-0.0206,0.0071,-3.0566,17.9575,-44.4425,
1.3840,0.0468,-0.0503,1.0056,-0.0010,-0.0154,-0.0080,-0.0399,-0.0206,0.0071,-3.0566,17.9575,-44.4425,
1.3850,0.0418,-0.0461,1.0064,-0.0010,-0.0154,-0.0080,-0.0399,-0.0206,0.0071,-3.0566,17.9575,-44.4425,
1.4250,0.0396,-0.0009,1.0089,-0.0010,-0.0154,-0.0080,-0.0399,-0.0206,0.0071,-3.0566,17.9575,-44.4425,
1.4260,0.0396,-0.0009,1.0089,-0.0010,-0.0154,-0.0080,-0.0399,-0.0206,0.0071,-2.9744,17.9028,-44.4302,
1.4270,0.0416,0.0173,1.0322,-0.0010,-0.0154,-0.0080,-0.0399,-0.0206,0.0071,-2.9744,17.9028,-44.4302,
1.4270,0.0416,0.0173,1.0322,-0.0010,-0.0154,-0.0080,0.0477,-0.0160,0.0135,-2.9744,17.9028,-44.4302,
1.4470,0.0465,0.0154,1.0297,-0.0010,-0.0154,-0.0080,0.0477,-0.0160,0.0135,-2.9744,17.9028,-44.4302,
1.4480,0.0465,0.0154,1.0297,-0.0010,-0.0154,-0.0080,0.0053,0.0210,0.0245,-2.9744,17.9028,-44.4302,
1.4630,0.0465,0.0154,1.0297,0.1411,-0.3753,-0.3005,0.0053,0.0210,0.0245,-2.9744,17.9028,-44.4302,
1.4650,0.0545,0.0103,1.0348,0.1411,-0.3753,-0.3005,0.0053,0.0210,0.0245,-2.9744,17.9028,-44.4302,
1.4920,0.0447,0.0086,1.0153,0.1411,-0.3753,-0.3005,0.0053,0.0210,0.0245,-2.9744,17.9028,-44.4302,
1.4930,0.0447,0.0086,1.0153,0.1411,-0.3753,-0.3005,-0.0467,0.0527,0.0165,-2.9744,17.9028,-44.4302,
1.4940,0.0447,0.0086,1.0153,0.1411,-0.3753,-0.3005,-0.0467,0.0527,0.0165,-2.8782,17.8883,-44.4021,
1.5120,0.0278,0.0085,1.0498,0.1411,-0.3753,-0.3005,-0.0467,0.0527,0.0165,-2.8782,17.8883,-44.4021,
1.5210,0.0278,0.0085,1.0498,0.1411,-0.3753,-0.3005,-0.0598,0.0436,0.0205,-2.8782,17.8883,-44.4021,
1.5220,0.0193,0.0142,1.0484,0.1411,-0.3753,-0.3005,-0.0598,0.0436,0.0205,-2.8782,17.8883,-44.4021,
1.5230,0.0193,0.0142,1.0484,0.1677,0.1257,0.0344,-0.0598,0.0436,0.0205,-2.8782,17.8883,-44.4021,
1.5580,0.0220,0.0226,1.0084,0.1677,0.1257,0.0344,-0.0598,0.0436,0.0205,-2.8782,17.8883,-44.4021,
1.5600,0.0220,0.0226,1.0084,0.1677,0.1257,0.0344,-0.0598,0.0436,0.0205,-2.8173,17.8800,-44.4390,
1.5810,0.0220,0.0226,1.0084,0.1677,0.1257,0.0344,-0.0735,-0.0282,0.0288,-2.8173,17.8800,-44.4390,
1.5820,0.0267,0.0247,1.0315,0.1677,0.1257,0.0344,-0.0735,-0.0282,0.0288,-2.8173,17.8800,-44.4390,
1.6010,0.0267,0.0247,1.0315,0.1677,0.1257,0.0344,-0.0635,-0.0123,0.0159,-2.8173,17.8800,-44.4390,
1.6020,0.0360,0.0160,1.0280,0.1677,0.1257,0.0344,-0.0635,-0.0123,0.0159,-2.8173,17.8800,-44.4390,
1.6030,0.0371,0.0147,1.0210,0.1677,0.1257,0.0344,-0.0635,-0.0123,0.0159,-2.8173,17.8800,-44.4390,
1.6040,0.0371,0.0147,1.0210,-0.0101,0.1410,0.0693,-0.0635,-0.0123,0.0159,-2.8173,17.8800,-44.4390,
1.6250,0.0359,0.0179,1.0487,-0.0101,0.1410,0.0693,-0.0635,-0.0123,0.0159,-2.8173,17.8800,-44.4390,
1.6260,0.0359,0.0179,1.0487,-0.0101,0.1410,0.0693,-0.0635,-0.0123,0.0159,-2.7314,17.9047,-44.3959,
1.6470,0.0359,0.0179,1.0487,-0.0101,0.1410,0.0693,-0.0793,0.0002,0.0202,-2.7314,17.9047,-44.3959,
1.6480,0.0382,0.0153,1.0423,-0.0101,0.1410,0.0693,-0.0793,0.0002,0.0202,-2.7314,17.9047,-44.3959,
1.6580,0.0338,0.0109,1.0333,-0.0101,0.1410,0.0693,-0.0793,0.0002,0.0202,-2.7314,17.9047,-44.3959,
1.6590,0.0338,0.0109,1.0333,0.0171,0.2392,-0.0217,-0.0793,0.0002,0.0202,-2.7314,17.9047,-44.3959,
1.6920,0.0338,0.0109,1.0333,0.0171,0.2392,-0.0217,-0.0668,0.0347,-0.0054,-2.7314,17.9047,-44.3959,
1.6930,0.0256,0.0002,1.0195,0.0171,0.2392,-0.0217,-0.0668,0.0347,-0.0054,-2.7314,17.9047,-44.3959,
1.6930,0.0256,0.0002,1.0195,0.0171,0.2392,-0.0217,-0.0668,0.0347,-0.0054,-2.7034,17.9855,-44.3513,
1.7170,0.0153,-0.0222,1.0262,0.0171,0.2392,-0.0217,-0.0668,0.0347,-0.0054,-2.7034,17.9855,-44.3513,
1.7410,0.0153,-0.0222,1.0262,0.0732,0.1707,0.1100,-0.0668,0.0347,-0.0054,-2.7034,17.9855,-44.3513,
1.7420,0.0153,-0.0222,1.0262,0.0732,0.1707,0.1100,-0.0189,0.0567,-0.0345,-2.7034,17.9855,-44.3513,
1.7420,0.0127,-0.0372,1.0180,0.0732,0.1707,0.1100,-0.0189,0.0567,-0.0345,-2.7034,17.9855,-44.3513,
1.7430,0.0188,-0.0350,1.0133,0.0732,0.1707,0.1100,-0.0189,0.0567,-0.0345,-2.7034,17.9855,-44.3513,
1.7570,0.0212,-0.0201,1.0196,0.0732,0.1707,0.1100,-0.0189,0.0567,-0.0345,-2.7034,17.9855,-44.3513,
1.7570,0.0212,-0.0201,1.0196,0.0732,0.1707,0.1100,-0.0045,0.0280,-0.0232,-2.7034,17.9855,-44.3513,
1.7580,0.0212,-0.0201,1.0196,0.0732,0.1707,0.1100,-0.0045,0.0280,-0.0232,-2.6150,18.0372,-44.3836,
1.7790,0.0277,-0.0055,1.0153,0.0732,0.1707,0.1100,-0.0045,0.0280,-0.0232,-2.6150,18.0372,-44.3836,
1.7940,0.0330,0.0017,1.0075,0.0732,0.1707,0.1100,-0.0045,0.0280,-0.0232,-2.6150,18.0372,-44.3836,
1.7950,0.0330,0.0017,1.0075,0.0732,0.1707,0.1100,-0.0378,0.0216,-0.0054,-2.6150,18.0372,-44.3836,
1.7950,0.0330,0.0017,1.0075,-0.0775,-0.1816,-0.0821,-0.0378,0.0216,-0.0054,-2.6150,18.0372,-44.3836,
1.8250,0.0382,-0.0073,1.0365,-0.0775,-0.1816,-0.0821,-0.0378,0.0216,-0.0054,-2.6150,18.0372,-44.3836,
1.8260,0.0382,-0.0073,1.0365,-0.0775,-0.1816,-0.0821,-0.0378,0.0216,-0.0054,-2.5976,18.1359,-44.3768,
1.8460,0.0294,-0.0187,1.0454,-0.0775,-0.1816,-0.0821,-0.0378,0.0216,-0.0054,-2.5976,18.1359,-44.3768,
1.8470,0.0294,-0.0187,1.0454,-0.0775,-0.1816,-0.0821,-0.0845,0.0335,-0.0167,-2.5976,18.1359,-44.3768,
1.8720,0.0311,-0.0177,1.0007,-0.0775,-0.1816,-0.0821,-0.0845,0.0335,-0.0167,-2.5976,18.1359,-44.3768,
1.8730,0.0311,-0.0177,1.0007,-0.0775,-0.1816,-0.0821,-0.0818,0.0194,-0.0112,-2.5976,18.1359,-44.3768,
1.8740,0.0311,-0.0177,1.0007,0.0517,0.0634,-0.1214,-0.0818,0.0194,-0.0112,-2.5976,18.1359,-44.3768,
1.8750,0.0310,-0.0116,1.0337,0.0517,0.0634,-0.1214,-0.0818,0.0194,-0.0112,-2.5976,18.1359,-44.3768,
1.8900,0.0310,-0.0116,1.0337,0.0517,0.0634,-0.1214,-0.0818,0.0194,-0.0112,-2.4561,18.2900,-44.3366,
1.9150,0.0310,-0.0116,1.0337,0.0517,0.0634,-0.1214,-0.0912,0.0323,-0.0024,-2.4561,18.2900,-44.3366,
1.9160,0.0252,-0.0150,1.0119,0.0517,0.0634,-0.1214,-0.0912,0.0323,-0.0024,-2.4561,18.2900,-44.3366,
1.9170,0.0171,-0.0195,1.0306,0.0517,0.0634,-0.1214,-0.0912,0.0323,-0.0024,-2.4561,18.2900,-44.3366,
1.9320,0.0171,-0.0195,1.0306,0.0835,0.0364,0.0634,-0.0912,0.0323,-0.0024,-2.4561,18.2900,-44.3366,
1.9330,0.0188,-0.0180,1.0365,0.0835,0.0364,0.0634,-0.0912,0.0323,-0.0024,-2.4561,18.2900,-44.3366,
1.9580,0.0188,-0.0180,1.0365,0.0835,0.0364,0.0634,-0.0912,0.0323,-0.0024,-2.4369,18.4394,-44.2752,
1.9590,0.0226,-0.0138,1.0091,0.0835,0.0364,0.0634,-0.0912,0.0323,-0.0024,-2.4369,18.4394,-44.2752,
1.9590,0.0226,-0.0138,1.0091,0.0835,0.0364,0.0634,-0.0641,0.0081,0.0013,-2.4369,18.4394,-44.2752,
1.9800,0.0221,-0.0200,1.0241,0.0835,0.0364,0.0634,-0.0641,0.0081,0.0013,-2.4369,18.4394,-44.2752,
2.0100,0.0221,-0.0200,1.0241,-0.0117,0.0596,-0.0183,-0.0641,0.0081,0.0013,-2.4369,18.4394,-44.2752,
2.0110,0.0221,-0.0200,1.0241,-0.0117,0.0596,-0.0183,-0.0766,0.0179,0.0074,-2.4369,18.4394,-44.2752,
2.0120,0.0214,-0.0244,1.0341,-0.0117,0.0596,-0.0183,-0.0766,0.0179,0.0074,-2.4369,18.4394,-44.2752,
2.0140,0.0210,-0.0210,1.0126,-0.0117,0.0596,-0.0183,-0.0766,0.0179,0.0074,-2.4369,18.4394,-44.2752,
2.0260,0.0210,-0.0210,1.0126,-0.0117,0.0596,-0.0183,-0.0766,0.0179,0.0074,-2.4155,18.6277,-44.2242,
2.0470,0.0210,-0.0210,1.0126,-0.0117,0.0596,-0.0183,-0.0711,0.0115,0.0107,-2.4155,18.6277,-44.2242,
2.0480,0.0204,-0.0166,1.0261,-0.0117,0.0596,-0.0183,-0.0711,0.0115,0.0107,-2.4155,18.6277,-44.2242,
2.0680,0.0204,-0.0166,1.0261,0.0015,0.0756,-0.0342,-0.0711,0.0115,0.0107,-2.4155,18.6277,-44.2242,
2.0690,0.0204,-0.0166,1.0261,0.0015,0.0756,-0.0342,-0.0854,0.0060,0.0144,-2.4155,18.6277,-44.2242,
2.0690,0.0238,-0.0165,1.0295,0.0015,0.0756,-0.0342,-0.0854,0.0060,0.0144,-2.4155,18.6277,-44.2242,
2.0700,0.0209,-0.0165,1.0206,0.0015,0.0756,-0.0342,-0.0854,0.0060,0.0144,-2.4155,18.6277,-44.2242,
2.0920,0.0180,-0.0232,1.0101,0.0015,0.0756,-0.0342,-0.0854,0.0060,0.0144,-2.4155,18.6277,-44.2242,
2.0930,0.0180,-0.0232,1.0101,0.0015,0.0756,-0.0342,-0.0854,0.0060,0.0144,-2.4177,18.8354,-44.1472,
2.1140,0.0180,-0.0232,1.0101,0.0015,0.0756,-0.0342,-0.1242,0.0329,0.0114,-2.4177,18.8354,-44.1472,
2.1150,0.0220,-0.0355,1.0274,0.0015,0.0756,-0.0342,-0.1242,0.0329,0.0114,-2.4177,18.8354,-44.1472,
2.1480,0.0220,-0.0355,1.0274,0.0065,0.1541,-0.0136,-0.1242,0.0329,0.0114,-2.4177,18.8354,-44.1472,
2.1490,0.0220,-0.0355,1.0274,0.0065,0.1541,-0.0136,-0.0638,-0.0087,0.0046,-2.4177,18.8354,-44.1472,
2.1500,0.0197,-0.0416,1.0461,0.0065,0.1541,-0.0136,-0.0638,-0.0087,0.0046,-2.4177,18.8354,-44.1472,
2.1500,0.0181,-0.0436,1.0272,0.0065,0.1541,-0.0136,-0.0638,-0.0087,0.0046,-2.4177,18.8354,-44.1472,
2.1590,0.0181,-0.0436,1.0272,0.0065,0.1541,-0.0136,-0.0638,-0.0087,0.0046,-2.4059,19.0612,-44.1327,
2.1800,0.0158,-0.0449,1.0257,0.0065,0.1541,-0.0136,-0.0638,-0.0087,0.0046,-2.4059,19.0612,-44.1327,
2.2040,0.0192,-0.0409,1.0269,0.0065,0.1541,-0.0136,-0.0638,-0.0087,0.0046,-2.4059,19.0612,-44.1327,
2.2050,0.0192,-0.0409,1.0269,0.0065,0.1541,-0.0136,-0.0369,-0.0029,0.0031,-2.4059,19.0612,-44.1327,
2.2060,0.0205,-0.0328,1.0123,0.0065,0.1541,-0.0136,-0.0369,-0.0029,0.0031,-2.4059,19.0612,-44.1327,
2.2060,0.0205,-0.0328,1.0123,-0.0077,-0.0214,0.0471,-0.0369,-0.0029,0.0031,-2.4059,19.0612,-44.1327,
2.2260,0.0222,-0.0311,1.0338,-0.0077,-0.0214,0.0471,-0.0369,-0.0029,0.0031,-2.4059,19.0612,-44.1327,
2.2270,0.0222,-0.0311,1.0338,-0.0077,-0.0214,0.0471,-0.0369,-0.0029,0.0031,-2.4211,19.2368,-44.1223,
2.2280,0.0222,-0.0311,1.0338,-0.0077,-0.0214,0.0471,-0.0488,0.0087,0.0028,-2.4211,19.2368,-44.1223,
2.2460,0.0252,-0.0317,1.0250,-0.0077,-0.0214,0.0471,-0.0488,0.0087,0.0028,-2.4211,19.2368,-44.1223,
2.2830,0.0252,-0.0317,1.0250,-0.0077,-0.0214,0.0471,-0.0467,0.0130,-0.0021,-2.4211,19.2368,-44.1223,
2.2840,0.0255,-0.0356,1.0125,-0.0077,-0.0214,0.0471,-0.0467,0.0130,-0.0021,-2.4211,19.2368,-44.1223,
2.2850,0.0194,-0.0416,1.0312,-0.0077,-0.0214,0.0471,-0.0467,0.0130,-0.0021,-2.4211,19.2368,-44.1223,
2.2860,0.0194,-0.0416,1.0312,-0.0036,0.0110,-0.0201,-0.0467,0.0130,-0.0021,-2.4211,19.2368,-44.1223,
2.2930,0.0194,-0.0416,1.0312,-0.0036,0.0110,-0.0201,-0.0467,0.0130,-0.0021,-2.4116,19.4462,-44.0062,
2.3150,0.0156,-0.0456,1.0251,-0.0036,0.0110,-0.0201,-0.0467,0.0130,-0.0021,-2.4116,19.4462,-44.0062,
2.3150,0.0156,-0.0456,1.0251,-0.0036,0.0110,-0.0201,-0.0427,0.0124,-0.0006,-2.4116,19.4462,-44.0062,
2.3400,0.0181,-0.0458,1.0302,-0.0036,0.0110,-0.0201,-0.0427,0.0124,-0.0006,-2.4116,19.4462,-44.0062,
2.3410,0.0225,-0.0435,1.0283,-0.0036,0.0110,-0.0201,-0.0427,0.0124,-0.0006,-2.4116,19.4462,-44.0062,
2.3420,0.0225,-0.0435,1.0283,-0.0036,0.0110,-0.0201,-0.0170,-0.0013,0.0040,-2.4116,19.4462,-44.0062,
2.3430,0.0225,-0.0435,1.0283,0.0353,0.0424,0.0014,-0.0170,-0.0013,0.0040,-2.4116,19.4462,-44.0062,
2.3580,0.0225,-0.0435,1.0283,0.0353,0.0424,0.0014,-0.0170,-0.0013,0.0040,-2.3649,19.6557,-43.9401,
2.3800,0.0220,-0.0425,1.0233,0.0353,0.0424,0.0014,-0.0170,-0.0013,0.0040,-2.3649,19.6557,-43.9401,
2.4180,0.0238,-0.0410,1.0252,0.0353,0.0424,0.0014,-0.0170,-0.0013,0.0040,-2.3649,19.6557,-43.9401,
2.4200,0.0205,-0.0378,1.0202,0.0353,0.0424,0.0014,-0.0170,-0.0013,0.0040,-2.3649,19.6557,-43.9401,
2.4200,0.0227,-0.0410,1.0144,0.0353,0.0424,0.0014,-0.0170,-0.0013,0.0040,-2.3649,19.6557,-43.9401,
2.4220,0.0227,-0.0410,1.0144,0.0353,0.0424,0.0014,0.0022,0.0014,0.0056,-2.3649,19.6557,-43.9401,
2.4220,0.0227,-0.0410,1.0144,0.0353,0.0424,0.0014,-0.0057,0.0054,0.0101,-2.3649,19.6557,-43.9401,
2.4230,0.0227,-0.0410,1.0144,-0.0014,-0.0372,0.0177,-0.0057,0.0054,0.0101,-2.3649,19.6557,-43.9401,
2.4240,0.0227,-0.0410,1.0144,-0.0014,-0.0372,0.0177,-0.0057,0.0054,0.0101,-2.3960,19.7735,-43.8825,
2.4450,0.0199,-0.0409,1.0435,-0.0014,-0.0372,0.0177,-0.0057,0.0054,0.0101,-2.3960,19.7735,-43.8825,
2.4780,0.0199,-0.0409,1.0435,0.0295,-0.0059,-0.0382,-0.0057,0.0054,0.0101,-2.3960,19.7735,-43.8825,
2.4790,0.0199,-0.0409,1.0435,0.0295,-0.0059,-0.0382,0.0251,0.0063,0.0034,-2.3960,19.7735,-43.8825,
2.4790,0.0165,-0.0347,1.0013,0.0295,-0.0059,-0.0382,0.0251,0.0063,0.0034,-2.3960,19.7735,-43.8825,
2.4800,0.0169,-0.0344,1.0416,0.0295,-0.0059,-0.0382,0.0251,0.0063,0.0034,-2.3960,19.7735,-43.8825,
2.4910,0.0169,-0.0344,1.0416,0.0295,-0.0059,-0.0382,0.0251,0.0063,0.0034,-2.3639,19.9329,-43.8329,
2.5130,0.0210,-0.0349,1.0185,0.0295,-0.0059,-0.0382,0.0251,0.0063,0.0034,-2.3639,19.9329,-43.8329,
2.5130,0.0210,-0.0349,1.0185,0.0295,-0.0059,-0.0382,0.0019,0.0048,0.0056,-2.3639,19.9329,-43.8329,
2.5560,0.0210,-0.0349,1.0185,0.0295,-0.0059,-0.0382,0.0080,0.0084,0.0028,-2.3639,19.9329,-43.8329,
2.5570,0.0192,-0.0395,1.0290,0.0295,-0.0059,-0.0382,0.0080,0.0084,0.0028,-2.3639,19.9329,-43.8329,
2.5580,0.0144,-0.0400,1.0345,0.0295,-0.0059,-0.0382,0.0080,0.0084,0.0028,-2.3639,19.9329,-43.8329,
2.5590,0.0170,-0.0372,1.0060,0.0295,-0.0059,-0.0382,0.0080,0.0084,0.0028,-2.3639,19.9329,-43.8329,
2.5590,0.0170,-0.0372,1.0060,-0.0066,0.0271,0.0284,0.0080,0.0084,0.0028,-2.3639,19.9329,-43.8329,
2.5600,0.0170,-0.0372,1.0060,-0.0066,0.0271,0.0284,0.0080,0.0084,0.0028,-2.3615,19.9934,-43.7777,
2.5780,0.0166,-0.0375,1.0371,-0.0066,0.0271,0.0284,0.0080,0.0084,0.0028,-2.3615,19.9934,-43.7777,
2.5790,0.0166,-0.0375,1.0371,-0.0066,0.0271,0.0284,0.0001,0.0112,0.0117,-2.3615,19.9934,-43.7777,
2.6140,0.0170,-0.0344,1.0267,-0.0066,0.0271,0.0284,0.0001,0.0112,0.0117,-2.3615,19.9934,-43.7777,
2.6180,0.0177,-0.0314,1.0080,-0.0066,0.0271,0.0284,0.0001,0.0112,0.0117,-2.3615,19.9934,-43.7777,
2.6180,0.0177,-0.0314,1.0080,-0.0066,0.0271,0.0284,0.0303,0.0200,0.0080,-2.3615,19.9934,-43.7777,
2.6190,0.0177,-0.0314,1.0080,0.0023,-0.0062,-0.0276,0.0303,0.0200,0.0080,-2.3615,19.9934,-43.7777,
2.6230,0.0177,-0.0314,1.0080,0.0023,-0.0062,-0.0276,0.0303,0.0200,0.0080,-2.2983,20.0460,-43.7465,
2.6460,0.0171,-0.0354,1.0207,0.0023,-0.0062,-0.0276,0.0303,0.0200,0.0080,-2.2983,20.0460,-43.7465,
2.6920,0.0171,-0.0354,1.0207,0.0023,-0.0062,-0.0276,-0.0008,0.0246,-0.0003,-2.2983,20.0460,-43.7465,
2.6930,0.0171,-0.0388,1.0373,0.0023,-0.0062,-0.0276,-0.0008,0.0246,-0.0003,-2.2983,20.0460,-43.7465,
2.6940,0.0177,-0.0349,1.0335,0.0023,-0.0062,-0.0276,-0.0008,0.0246,-0.0003,-2.2983,20.0460,-43.7465,
2.6940,0.0177,-0.0349,1.0335,0.0023,-0.0062,-0.0276,-0.0008,0.0246,-0.0003,-2.2382,20.0397,-43.7191,
2.6950,0.0158,-0.0326,1.0060,0.0023,-0.0062,-0.0276,-0.0008,0.0246,-0.0003,-2.2382,20.0397,-43.7191,
2.6960,0.0158,-0.0326,1.0060,0.0023,-0.0062,-0.0276,0.0080,0.0173,-0.0018,-2.2382,20.0397,-43.7191,
2.6960,0.0158,-0.0326,1.0060,0.0101,0.0295,-0.0239,0.0080,0.0173,-0.0018,-2.2382,20.0397,-43.7191,
2.7130,0.0186,-0.0375,0.9963,0.0101,0.0295,-0.0239,0.0080,0.0173,-0.0018,-2.2382,20.0397,-43.7191,
2.7510,0.0176,-0.0448,1.0753,0.0101,0.0295,-0.0239,0.0080,0.0173,-0.0018,-2.2382,20.0397,-43.7191,
2.7520,0.0138,-0.0394,1.0189,0.0101,0.0295,-0.0239,0.0080,0.0173,-0.0018,-2.2382,20.0397,-43.7191,
2.7530,0.0138,-0.0394,1.0189,0.0101,0.0295,-0.0239,-0.0308,0.0598,-0.0024,-2.2382,20.0397,-43.7191,
2.7540,0.0138,-0.0394,1.0189,0.0267,0.0175,0.0163,-0.0308,0.0598,-0.0024,-2.2382,20.0397,-43.7191,
2.7570,0.0138,-0.0394,1.0189,0.0267,0.0175,0.0163,-0.0308,0.0598,-0.0024,-2.1165,20.0459,-43.6887,
2.7800,0.0110,-0.0359,1.0130,0.0267,0.0175,0.0163,-0.0308,0.0598,-0.0024,-2.1165,20.0459,-43.6887,
2.7810,0.0110,-0.0359,1.0130,0.0267,0.0175,0.0163,0.0178,-0.0035,0.0037,-2.1165,20.0459,-43.6887,
2.8240,0.0148,-0.0386,1.0377,0.0267,0.0175,0.0163,0.0178,-0.0035,0.0037,-2.1165,20.0459,-43.6887,
2.8250,0.0148,-0.0386,1.0377,0.0267,0.0175,0.0163,0.0236,0.0170,0.0071,-2.1165,20.0459,-43.6887,
2.8250,0.0172,-0.0295,1.0130,0.0267,0.0175,0.0163,0.0236,0.0170,0.0071,-2.1165,20.0459,-43.6887,
2.8260,0.0172,-0.0295,1.0130,0.0267,0.0175,0.0163,0.0236,0.0170,0.0071,-2.0696,20.0305,-43.6238,
2.8290,0.0171,-0.0221,1.0191,0.0267,0.0175,0.0163,0.0236,0.0170,0.0071,-2.0696,20.0305,-43.6238,
2.8300,0.0171,-0.0221,1.0191,0.0256,-0.0268,0.0187,0.0236,0.0170,0.0071,-2.0696,20.0305,-43.6238,
2.8870,0.0171,-0.0221,1.0191,0.0256,-0.0268,0.0187,-0.0152,0.0216,0.0092,-2.0696,20.0305,-43.6238,
2.8880,0.0170,-0.0239,1.0312,0.0256,-0.0268,0.0187,-0.0152,0.0216,0.0092,-2.0696,20.0305,-43.6238,
2.8890,0.0155,-0.0325,1.0286,0.0256,-0.0268,0.0187,-0.0152,0.0216,0.0092,-2.0696,20.0305,-43.6238,
2.8900,0.0125,-0.0410,1.0200,0.0256,-0.0268,0.0187,-0.0152,0.0216,0.0092,-2.0696,20.0305,-43.6238,
2.8910,0.0125,-0.0410,1.0200,0.0256,-0.0268,0.0187,-0.0167,0.0213,0.0062,-2.0696,20.0305,-43.6238,
2.8910,0.0125,-0.0410,1.0200,0.0324,0.0658,-0.0202,-0.0167,0.0213,0.0062,-2.0696,20.0305,-43.6238,
2.8920,0.0125,-0.0410,1.0200,0.0324,0.0658,-0.0202,-0.0167,0.0213,0.0062,-2.0223,20.0032,-43.6239,
2.9120,0.0083,-0.0415,1.0244,0.0324,0.0658,-0.0202,-0.0167,0.0213,0.0062,-2.0223,20.0032,-43.6239,
2.9580,0.0050,-0.0398,1.0332,0.0324,0.0658,-0.0202,-0.0167,0.0213,0.0062,-2.0223,20.0032,-43.6239,
2.9590,0.0049,-0.0384,1.0340,0.0324,0.0658,-0.0202,-0.0167,0.0213,0.0062,-2.0223,20.0032,-43.6239,
2.9610,0.0049,-0.0384,1.0340,0.0324,0.0658,-0.0202,-0.0274,0.0219,0.0077,-2.0223,20.0032,-43.6239,
2.9620,0.0049,-0.0384,1.0340,0.0324,0.0658,-0.0202,-0.0274,0.0219,0.0077,-1.9011,19.9882,-43.6463,
2.9650,0.0049,-0.0384,1.0340,0.0324,0.0658,-0.0202,-0.0024,0.0051,0.0065,-1.9011,19.9882,-43.6463,
2.9660,0.0049,-0.0384,1.0340,0.0265,0.0416,0.0093,-0.0024,0.0051,0.0065,-1.9011,19.9882,-43.6463,
2.9660,0.0061,-0.0382,1.0282,0.0265,0.0416,0.0093,-0.0024,0.0051,0.0065,-1.9011,19.9882,-43.6463,
3.0250,0.0061,-0.0382,1.0282,0.0265,0.0416,0.0093,-0.0076,-0.0041,0.0037,-1.9011,19.9882,-43.6463,
3.0270,0.0063,-0.0362,1.0189,0.0265,0.0416,0.0093,-0.0076,-0.0041,0.0037,-1.9011,19.9882,-43.6463,
3.0270,0.0081,-0.0327,1.0299,0.0265,0.0416,0.0093,-0.0076,-0.0041,0.0037,-1.9011,19.9882,-43.6463,
3.0280,0.0081,-0.0311,0.9898,0.0265,0.0416,0.0093,-0.0076,-0.0041,0.0037,-1.9011,19.9882,-43.6463,
3.0290,0.0081,-0.0311,0.9898,-0.0560,0.0035,0.0571,-0.0076,-0.0041,0.0037,-1.9011,19.9882,-43.6463,
3.0290,0.0081,-0.0311,0.9898,-0.0560,0.0035,0.0571,-0.0076,-0.0041,0.0037,-1.8538,19.9609,-43.6463,
3.0460,0.0182,-0.0353,1.0674,-0.0560,0.0035,0.0571,-0.0076,-0.0041,0.0037,-1.8538,19.9609,-43.6463,
3.0470,0.0182,-0.0353,1.0674,-0.0560,0.0035,0.0571,-0.0354,0.0036,0.0001,-1.8538,19.9609,-43.6463,
3.0910,0.0182,-0.0353,1.0674,-0.0560,0.0035,0.0571,0.0196,-0.0041,-0.0036,-1.8538,19.9609,-43.6463,
3.0920,0.0117,-0.0372,1.0123,-0.0560,0.0035,0.0571,0.0196,-0.0041,-0.0036,-1.8538,19.9609,-43.6463,
3.0920,0.0111,-0.0328,1.0188,-0.0560,0.0035,0.0571,0.0196,-0.0041,-0.0036,-1.8538,19.9609,-43.6463,
3.0940,0.0111,-0.0328,1.0188,-0.0560,0.0035,0.0571,0.0196,-0.0041,-0.0036,-1.7434,19.9642,-43.6936,
3.1020,0.0111,-0.0328,1.0188,-0.0179,0.0491,-0.0755,0.0196,-0.0041,-0.0036,-1.7434,19.9642,-43.6936,
3.1030,0.0120,-0.0304,1.0339,-0.0179,0.0491,-0.0755,0.0196,-0.0041,-0.0036,-1.7434,19.9642,-43.6936,
3.1580,0.0120,-0.0304,1.0339,-0.0179,0.0491,-0.0755,0.0196,-0.0041,-0.0036,-1.6821,19.9661,-43.7170,
3.1600,0.0173,-0.0285,1.0238,-0.0179,0.0491,-0.0755,0.0196,-0.0041,-0.0036,-1.6821,19.9661,-43.7170,
3.1620,0.0144,-0.0339,1.0273,-0.0179,0.0491,-0.0755,0.0196,-0.0041,-0.0036,-1.6821,19.9661,-43.7170,
3.1630,0.0144,-0.0339,1.0273,-0.0179,0.0491,-0.0755,-0.0060,0.0017,0.0040,-1.6821,19.9661,-43.7170,
3.1630,0.0098,-0.0406,1.0305,-0.0179,0.0491,-0.0755,-0.0060,0.0017,0.0040,-1.6821,19.9661,-43.7170,
3.1640,0.0098,-0.0406,1.0305,-0.0179,0.0491,-0.0755,-0.0189,0.0026,0.0022,-1.6821,19.9661,-43.7170,
3.1650,0.0098,-0.0406,1.0305,0.0148,0.0480,0.0657,-0.0189,0.0026,0.0022,-1.6821,19.9661,-43.7170,
3.2250,0.0098,-0.0406,1.0305,0.0148,0.0480,0.0657,-0.0189,0.0026,0.0022,-1.6466,19.9481,-43.7169,
3.2260,0.0098,-0.0406,1.0305,0.0148,0.0480,0.0657,-0.0158,0.0051,0.0016,-1.6466,19.9481,-43.7169,
3.2270,0.0117,-0.0384,1.0130,0.0148,0.0480,0.0657,-0.0158,0.0051,0.0016,-1.6466,19.9481,-43.7169,
3.2280,0.0143,-0.0387,1.0266,0.0148,0.0480,0.0657,-0.0158,0.0051,0.0016,-1.6466,19.9481,-43.7169,
3.2290,0.0087,-0.0404,1.0271,0.0148,0.0480,0.0657,-0.0158,0.0051,0.0016,-1.6466,19.9481,-43.7169,
3.2390,0.0106,-0.0414,1.0195,0.0148,0.0480,0.0657,-0.0158,0.0051,0.0016,-1.6466,19.9481,-43.7169,
3.2410,0.0106,-0.0414,1.0195,0.0148,0.0480,0.0657,-0.0042,0.0090,0.0007,-1.6466,19.9481,-43.7169,
3.2420,0.0106,-0.0414,1.0195,0.0266,0.0392,-0.0068,-0.0042,0.0090,0.0007,-1.6466,19.9481,-43.7169,
3.2910,0.0092,-0.0395,1.0200,0.0266,0.0392,-0.0068,-0.0042,0.0090,0.0007,-1.6466,19.9481,-43.7169,
3.2920,0.0092,-0.0395,1.0200,0.0266,0.0392,-0.0068,-0.0213,0.0121,0.0025,-1.6466,19.9481,-43.7169,
3.2930,0.0092,-0.0395,1.0200,0.0266,0.0392,-0.0068,-0.0213,0.0121,0.0025,-1.6083,19.9788,-43.7265,
3.2940,0.0076,-0.0388,1.0203,0.0266,0.0392,-0.0068,-0.0213,0.0121,0.0025,-1.6083,19.9788,-43.7265,
3.2980,0.0092,-0.0395,1.0378,0.0266,0.0392,-0.0068,-0.0213,0.0121,0.0025,-1.6083,19.9788,-43.7265,
3.2980,0.0092,-0.0395,1.0378,0.0123,0.0064,-0.0153,-0.0213,0.0121,0.0025,-1.6083,19.9788,-43.7265,
3.3580,0.0073,-0.0380,1.0361,0.0123,0.0064,-0.0153,-0.0213,0.0121,0.0025,-1.6083,19.9788,-43.7265,
3.3590,0.0073,-0.0380,1.0361,0.0123,0.0064,-0.0153,-0.0167,0.0032,0.0004,-1.6083,19.9788,-43.7265,
3.3600,0.0073,-0.0380,1.0361,0.0123,0.0064,-0.0153,-0.0314,0.0002,0.0022,-1.6083,19.9788,-43.7265,
3.3620,0.0071,-0.0322,1.0133,0.0123,0.0064,-0.0153,-0.0314,0.0002,0.0022,-1.6083,19.9788,-43.7265,
3.3630,0.0062,-0.0344,1.0041,0.0123,0.0064,-0.0153,-0.0314,0.0002,0.0022,-1.6083,19.9788,-43.7265,
3.3640,0.0062,-0.0344,1.0041,0.0123,0.0064,-0.0153,-0.0314,0.0002,0.0022,-1.6065,19.9964,-43.7896,
3.3760,0.0062,-0.0344,1.0041,-0.0079,0.0314,0.0313,-0.0314,0.0002,0.0022,-1.6065,19.9964,-43.7896,
3.3770,0.0120,-0.0405,1.0341,-0.0079,0.0314,0.0313,-0.0314,0.0002,0.0022,-1.6065,19.9964,-43.7896,
3.4260,0.0120,-0.0405,1.0341,-0.0079,0.0314,0.0313,-0.0326,0.0277,-0.0024,-1.6065,19.9964,-43.7896,
3.4280,0.0109,-0.0449,1.0437,-0.0079,0.0314,0.0313,-0.0326,0.0277,-0.0024,-1.6065,19.9964,-43.7896,
3.4290,0.0093,-0.0398,1.0159,-0.0079,0.0314,0.0313,-0.0326,0.0277,-0.0024,-1.6065,19.9964,-43.7896,
3.4300,0.0093,-0.0398,1.0159,-0.0079,0.0314,0.0313,-0.0326,0.0277,-0.0024,-1.5931,20.0162,-43.8007,
3.4350,0.0093,-0.0398,1.0159,-0.0079,0.0314,0.0313,-0.0305,-0.0297,0.0001,-1.5931,20.0162,-43.8007,
3.4350,0.0074,-0.0394,1.0268,-0.0079,0.0314,0.0313,-0.0305,-0.0297,0.0001,-1.5931,20.0162,-43.8007,
3.4360,0.0074,-0.0394,1.0268,-0.0176,0.0700,-0.0549,-0.0305,-0.0297,0.0001,-1.5931,20.0162,-43.8007,
3.4910,0.0118,-0.0403,1.0350,-0.0176,0.0700,-0.0549,-0.0305,-0.0297,0.0001,-1.5931,20.0162,-43.8007,
3.4930,0.0118,-0.0403,1.0350,-0.0176,0.0700,-0.0549,-0.0305,-0.0297,0.0001,-1.6413,20.0459,-43.7235,
3.4940,0.0118,-0.0403,1.0350,-0.0176,0.0700,-0.0549,0.0120,-0.0123,0.0007,-1.6413,20.0459,-43.7235,
3.4940,0.0122,-0.0328,1.0107,-0.0176,0.0700,-0.0549,0.0120,-0.0123,0.0007,-1.6413,20.0459,-43.7235,
3.5130,0.0094,-0.0307,1.0324,-0.0176,0.0700,-0.0549,0.0120,-0.0123,0.0007,-1.6413,20.0459,-43.7235,
3.5150,0.0094,-0.0307,1.0324,-0.0176,0.0700,-0.0549,-0.0299,-0.0050,0.0022,-1.6413,20.0459,-43.7235,
3.5160,0.0148,-0.0331,1.0256,-0.0176,0.0700,-0.0549,-0.0299,-0.0050,0.0022,-1.6413,20.0459,-43.7235,
3.5160,0.0148,-0.0331,1.0256,-0.0102,0.0203,0.0573,-0.0299,-0.0050,0.0022,-1.6413,20.0459,-43.7235,
3.5590,0.0148,-0.0331,1.0256,-0.0102,0.0203,0.0573,-0.0299,-0.0050,0.0022,-1.6384,20.0942,-43.7461,
3.5620,0.0155,-0.0386,1.0301,-0.0102,0.0203,0.0573,-0.0299,-0.0050,0.0022,-1.6384,20.0942,-43.7461,
3.5630,0.0106,-0.0460,1.0244,-0.0102,0.0203,0.0573,-0.0299,-0.0050,0.0022,-1.6384,20.0942,-43.7461,
3.5640,0.0106,-0.0460,1.0244,-0.0102,0.0203,0.0573,-0.0296,-0.0004,0.0019,-1.6384,20.0942,-43.7461,
3.5720,0.0106,-0.0460,1.0244,0.0121,0.1096,-0.0156,-0.0296,-0.0004,0.0019,-1.6384,20.0942,-43.7461,
3.5730,0.0063,-0.0503,1.0214,0.0121,0.1096,-0.0156,-0.0296,-0.0004,0.0019,-1.6384,20.0942,-43.7461,
3.6250,0.0087,-0.0499,1.0327,0.0121,0.1096,-0.0156,-0.0296,-0.0004,0.0019,-1.6384,20.0942,-43.7461,
3.6270,0.0087,-0.0499,1.0327,0.0121,0.1096,-0.0156,-0.0296,-0.0004,0.0019,-1.6753,20.1154,-43.6433,
3.6280,0.0087,-0.0499,1.0327,0.0121,0.1096,-0.0156,-0.0372,-0.0087,0.0056,-1.6753,20.1154,-43.6433,
3.6280,0.0122,-0.0467,1.0302,0.0121,0.1096,-0.0156,-0.0372,-0.0087,0.0056,-1.6753,20.1154,-43.6433,
3.6460,0.0122,-0.0467,1.0302,0.0121,0.1096,-0.0156,-0.0021,-0.0154,0.0065,-1.6753,20.1154,-43.6433,
3.6470,0.0121,-0.0449,1.0289,0.0121,0.1096,-0.0156,-0.0021,-0.0154,0.0065,-1.6753,20.1154,-43.6433,
3.6480,0.0140,-0.0437,1.0190,0.0121,0.1096,-0.0156,-0.0021,-0.0154,0.0065,-1.6753,20.1154,-43.6433,
3.6480,0.0140,-0.0437,1.0190,-0.0149,-0.0066,0.0083,-0.0021,-0.0154,0.0065,-1.6753,20.1154,-43.6433,
3.6910,0.0096,-0.0430,1.0345,-0.0149,-0.0066,0.0083,-0.0021,-0.0154,0.0065,-1.6753,20.1154,-43.6433,
3.6920,0.0139,-0.0410,0.9937,-0.0149,-0.0066,0.0083,-0.0021,-0.0154,0.0065,-1.6753,20.1154,-43.6433,
3.6930,0.0139,-0.0410,0.9937,-0.0149,-0.0066,0.0083,-0.0094,-0.0129,0.0010,-1.6753,20.1154,-43.6433,
3.6940,0.0139,-0.0410,0.9937,-0.0149,-0.0066,0.0083,-0.0094,-0.0129,0.0010,-1.7470,20.1530,-43.5921,
3.7070,0.0139,-0.0410,0.9937,-0.0149,-0.0066,0.0083,-0.0344,-0.0047,0.0056,-1.7470,20.1530,-43.5921,
3.7090,0.0165,-0.0448,1.0691,-0.0149,-0.0066,0.0083,-0.0344,-0.0047,0.0056,-1.7470,20.1530,-43.5921,
3.7100,0.0165,-0.0448,1.0691,0.0012,0.0053,0.0232,-0.0344,-0.0047,0.0056,-1.7470,20.1530,-43.5921,
3.7600,0.0165,-0.0448,1.0691,0.0012,0.0053,0.0232,0.0117,-0.0102,0.0043,-1.7470,20.1530,-43.5921,
3.7620,0.0139,-0.0421,1.0024,0.0012,0.0053,0.0232,0.0117,-0.0102,0.0043,-1.7470,20.1530,-43.5921,
3.7630,0.0112,-0.0388,1.0361,0.0012,0.0053,0.0232,0.0117,-0.0102,0.0043,-1.7470,20.1530,-43.5921,
3.7640,0.0112,-0.0388,1.0361,0.0012,0.0053,0.0232,0.0117,-0.0102,0.0043,-1.8042,20.2297,-43.5636,
3.7800,0.0131,-0.0359,1.0238,0.0012,0.0053,0.0232,0.0117,-0.0102,0.0043,-1.8042,20.2297,-43.5636,
3.7850,0.0131,-0.0359,1.0238,0.0072,0.0264,0.0190,0.0117,-0.0102,0.0043,-1.8042,20.2297,-43.5636,
3.7860,0.0131,-0.0359,1.0238,0.0072,0.0264,0.0190,0.0001,-0.0056,0.0059,-1.8042,20.2297,-43.5636,
3.7870,0.0158,-0.0361,1.0212,0.0072,0.0264,0.0190,0.0001,-0.0056,0.0059,-1.8042,20.2297,-43.5636,
3.8240,0.0158,-0.0361,1.0212,0.0072,0.0264,0.0190,-0.0146,-0.0108,0.0028,-1.8042,20.2297,-43.5636,
3.8250,0.0132,-0.0417,1.0363,0.0072,0.0264,0.0190,-0.0146,-0.0108,0.0028,-1.8042,20.2297,-43.5636,
3.8260,0.0109,-0.0445,1.0175,0.0072,0.0264,0.0190,-0.0146,-0.0108,0.0028,-1.8042,20.2297,-43.5636,
3.8260,0.0109,-0.0445,1.0175,0.0072,0.0264,0.0190,-0.0146,-0.0108,0.0028,-1.8886,20.2455,-43.5656,
3.8440,0.0109,-0.0445,1.0175,0.0002,0.0819,-0.0097,-0.0146,-0.0108,0.0028,-1.8886,20.2455,-43.5656,
3.8450,0.0149,-0.0456,1.0235,0.0002,0.0819,-0.0097,-0.0146,-0.0108,0.0028,-1.8886,20.2455,-43.5656,
3.8920,0.0149,-0.0456,1.0235,0.0002,0.0819,-0.0097,-0.0131,0.0039,-0.0003,-1.8886,20.2455,-43.5656,
3.8940,0.0148,-0.0464,1.0239,0.0002,0.0819,-0.0097,-0.0131,0.0039,-0.0003,-1.8886,20.2455,-43.5656,
3.8950,0.0128,-0.0472,1.0250,0.0002,0.0819,-0.0097,-0.0131,0.0039,-0.0003,-1.8886,20.2455,-43.5656,
3.8960,0.0128,-0.0472,1.0250,0.0002,0.0819,-0.0097,-0.0131,0.0039,-0.0003,-1.9108,20.2833,-43.5768,
3.9130,0.0128,-0.0472,1.0250,0.0002,0.0819,-0.0097,-0.0088,0.0048,-0.0024,-1.9108,20.2833,-43.5768,
3.9150,0.0120,-0.0478,1.0218,0.0002,0.0819,-0.0097,-0.0088,0.0048,-0.0024,-1.9108,20.2833,-43.5768,
3.9220,0.0115,-0.0453,1.0304,0.0002,0.0819,-0.0097,-0.0088,0.0048,-0.0024,-1.9108,20.2833,-43.5768,
3.9240,0.0115,-0.0453,1.0304,0.0040,0.0201,0.0047,-0.0088,0.0048,-0.0024,-1.9108,20.2833,-43.5768,
3.9590,0.0138,-0.0455,1.0279,0.0040,0.0201,0.0047,-0.0088,0.0048,-0.0024,-1.9108,20.2833,-43.5768,
3.9600,0.0138,-0.0455,1.0279,0.0040,0.0201,0.0047,-0.0088,0.0048,-0.0024,-1.9221,20.3028,-43.5632,
3.9610,0.0138,-0.0455,1.0279,0.0040,0.0201,0.0047,-0.0140,0.0026,0.0028,-1.9221,20.3028,-43.5632,
3.9810,0.0144,-0.0449,1.0252,0.0040,0.0201,0.0047,-0.0140,0.0026,0.0028,-1.9221,20.3028,-43.5632,
3.9820,0.0121,-0.0438,1.0274,0.0040,0.0201,0.0047,-0.0140,0.0026,0.0028,-1.9221,20.3028,-43.5632,
3.9830,0.0121,-0.0438,1.0274,0.0040,0.0201,0.0047,-0.0039,0.0081,0.0028,-1.9221,20.3028,-43.5632,
3.9830,0.0121,-0.0438,1.0274,-0.0017,-0.0016,-0.0006,-0.0039,0.0081,0.0028,-1.9221,20.3028,-43.5632,
4.0270,0.0121,-0.0438,1.0274,-0.0017,-0.0016,-0.0006,0.0059,0.0005,-0.0018,-1.9221,20.3028,-43.5632,
4.0300,0.0123,-0.0448,1.0284,-0.0017,-0.0016,-0.0006,0.0059,0.0005,-0.0018,-1.9221,20.3028,-43.5632,
4.0310,0.0142,-0.0421,1.0343,-0.0017,-0.0016,-0.0006,0.0059,0.0005,-0.0018,-1.9221,20.3028,-43.5632,
4.0310,0.0142,-0.0421,1.0343,-0.0017,-0.0016,-0.0006,0.0059,0.0005,-0.0018,-1.9431,20.3708,-43.5468,
4.0480,0.0144,-0.0376,1.0223,-0.0017,-0.0016,-0.0006,0.0059,0.0005,-0.0018,-1.9431,20.3708,-43.5468,
4.0600,0.0129,-0.0371,1.0086,-0.0017,-0.0016,-0.0006,0.0059,0.0005,-0.0018,-1.9431,20.3708,-43.5468,
4.0620,0.0129,-0.0371,1.0086,-0.0017,-0.0016,-0.0006,-0.0027,-0.0041,-0.0012,-1.9431,20.3708,-43.5468,
4.0620,0.0129,-0.0371,1.0086,0.0046,0.0146,0.0162,-0.0027,-0.0041,-0.0012,-1.9431,20.3708,-43.5468,
4.0920,0.0129,-0.0371,1.0086,0.0046,0.0146,0.0162,-0.0027,-0.0041,-0.0012,-1.9064,20.4055,-43.4278,
4.0940,0.0123,-0.0432,1.0012,0.0046,0.0146,0.0162,-0.0027,-0.0041,-0.0012,-1.9064,20.4055,-43.4278,
4.1130,0.0132,-0.0496,1.0788,0.0046,0.0146,0.0162,-0.0027,-0.0041,-0.0012,-1.9064,20.4055,-43.4278,
4.1150,0.0132,-0.0496,1.0788,0.0046,0.0146,0.0162,-0.0124,0.0405,0.0010,-1.9064,20.4055,-43.4278,
4.1170,0.0132,-0.0496,1.0788,0.0139,0.0575,-0.0249,-0.0124,0.0405,0.0010,-1.9064,20.4055,-43.4278,
4.1180,0.0104,-0.0458,1.0151,0.0139,0.0575,-0.0249,-0.0124,0.0405,0.0010,-1.9064,20.4055,-43.4278,
4.1590,0.0095,-0.0437,1.0096,0.0139,0.0575,-0.0249,-0.0124,0.0405,0.0010,-1.9064,20.4055,-43.4278,
4.1610,0.0095,-0.0437,1.0096,0.0139,0.0575,-0.0249,-0.0124,0.0405,0.0010,-1.9416,20.4227,-43.4536,
4.1630,0.0155,-0.0464,1.0377,0.0139,0.0575,-0.0249,-0.0124,0.0405,0.0010,-1.9416,20.4227,-43.4536,
4.1630,0.0155,-0.0464,1.0377,0.0139,0.0575,-0.0249,0.0071,-0.0313,0.0019,-1.9416,20.4227,-43.4536,
4.1810,0.0164,-0.0443,1.0264,0.0139,0.0575,-0.0249,0.0071,-0.0313,0.0019,-1.9416,20.4227,-43.4536,
4.1830,0.0164,-0.0443,1.0264,0.0139,0.0575,-0.0249,0.0202,-0.0114,0.0056,-1.9416,20.4227,-43.4536,
4.1950,0.0140,-0.0356,1.0241,0.0139,0.0575,-0.0249,0.0202,-0.0114,0.0056,-1.9416,20.4227,-43.4536,
4.1960,0.0140,-0.0356,1.0241,-0.0133,-0.0112,0.0280,0.0202,-0.0114,0.0056,-1.9416,20.4227,-43.4536,
4.2240,0.0149,-0.0327,1.0296,-0.0133,-0.0112,0.0280,0.0202,-0.0114,0.0056,-1.9416,20.4227,-43.4536,
4.2260,0.0149,-0.0327,1.0296,-0.0133,-0.0112,0.0280,0.0202,-0.0114,0.0056,-1.9677,20.3926,-43.4436,
4.2270,0.0149,-0.0327,1.0296,-0.0133,-0.0112,0.0280,0.0178,-0.0029,-0.0021,-1.9677,20.3926,-43.4436,
4.2460,0.0182,-0.0350,1.0241,-0.0133,-0.0112,0.0280,0.0178,-0.0029,-0.0021,-1.9677,20.3926,-43.4436,
4.2550,0.0134,-0.0436,1.0256,-0.0133,-0.0112,0.0280,0.0178,-0.0029,-0.0021,-1.9677,20.3926,-43.4436,
4.2560,0.0134,-0.0436,1.0256,-0.0133,-0.0112,0.0280,0.0040,0.0023,-0.0027,-1.9677,20.3926,-43.4436,
4.2570,0.0134,-0.0436,1.0256,0.0151,0.0165,0.0098,0.0040,0.0023,-0.0027,-1.9677,20.3926,-43.4436,
4.2920,0.0134,-0.0436,1.0256,0.0151,0.0165,0.0098,0.0040,0.0023,-0.0027,-1.9571,20.3526,-43.4842,
4.2940,0.0101,-0.0475,1.0282,0.0151,0.0165,0.0098,0.0040,0.0023,-0.0027,-1.9571,20.3526,-43.4842,
4.3140,0.0101,-0.0475,1.0282,0.0151,0.0165,0.0098,0.0077,-0.0023,-0.0009,-1.9571,20.3526,-43.4842,
4.3150,0.0087,-0.0471,1.0267,0.0151,0.0165,0.0098,0.0077,-0.0023,-0.0009,-1.9571,20.3526,-43.4842,
4.3160,0.0106,-0.0450,1.0278,0.0151,0.0165,0.0098,0.0077,-0.0023,-0.0009,-1.9571,20.3526,-43.4842,
4.3320,0.0149,-0.0419,1.0238,0.0151,0.0165,0.0098,0.0077,-0.0023,-0.0009,-1.9571,20.3526,-43.4842,
4.3330,0.0149,-0.0419,1.0238,0.0151,0.0165,0.0098,0.0111,-0.0126,0.0028,-1.9571,20.3526,-43.4842,
4.3340,0.0149,-0.0419,1.0238,0.0106,0.0408,0.0070,0.0111,-0.0126,0.0028,-1.9571,20.3526,-43.4842,
4.3580,0.0149,-0.0419,1.0238,0.0106,0.0408,0.0070,0.0111,-0.0126,0.0028,-1.9454,20.3544,-43.4452,
4.3600,0.0142,-0.0393,1.0241,0.0106,0.0408,0.0070,0.0111,-0.0126,0.0028,-1.9454,20.3544,-43.4452,
4.3790,0.0142,-0.0393,1.0241,0.0106,0.0408,0.0070,0.0083,-0.0139,0.0010,-1.9454,20.3544,-43.4452,
4.3800,0.0148,-0.0354,1.0284,0.0106,0.0408,0.0070,0.0083,-0.0139,0.0010,-1.9454,20.3544,-43.4452,
4.3910,0.0147,-0.0375,0.9954,0.0106,0.0408,0.0070,0.0083,-0.0139,0.0010,-1.9454,20.3544,-43.4452,
4.3930,0.0147,-0.0375,0.9954,-0.0284,-0.0197,0.0063,0.0083,-0.0139,0.0010,-1.9454,20.3544,-43.4452,
4.4250,0.0182,-0.0417,1.0481,-0.0284,-0.0197,0.0063,0.0083,-0.0139,0.0010,-1.9454,20.3544,-43.4452,
4.4270,0.0182,-0.0417,1.0481,-0.0284,-0.0197,0.0063,-0.0137,0.0005,0.0019,-1.9454,20.3544,-43.4452,
4.4280,0.0182,-0.0417,1.0481,-0.0284,-0.0197,0.0063,-0.0137,0.0005,0.0019,-1.9716,20.3246,-43.4222,
4.4470,0.0164,-0.0410,1.0125,-0.0284,-0.0197,0.0063,-0.0137,0.0005,0.0019,-1.9716,20.3246,-43.4222,
4.4690,0.0164,-0.0410,1.0125,0.0066,0.0448,-0.0680,-0.0137,0.0005,0.0019,-1.9716,20.3246,-43.4222,
4.4700,0.0164,-0.0410,1.0125,0.0066,0.0448,-0.0680,0.0095,-0.0050,0.0019,-1.9716,20.3246,-43.4222,
4.4710,0.0128,-0.0367,1.0210,0.0066,0.0448,-0.0680,0.0095,-0.0050,0.0019,-1.9716,20.3246,-43.4222,
4.4710,0.0136,-0.0354,1.0294,0.0066,0.0448,-0.0680,0.0095,-0.0050,0.0019,-1.9716,20.3246,-43.4222,
4.4920,0.0136,-0.0354,1.0294,0.0066,0.0448,-0.0680,0.0095,-0.0050,0.0019,-1.9730,20.2838,-43.4762,
4.4940,0.0136,-0.0354,1.0294,0.0066,0.0448,-0.0680,-0.0021,-0.0047,0.0059,-1.9730,20.2838,-43.4762,
4.4940,0.0186,-0.0333,1.0258,0.0066,0.0448,-0.0680,-0.0021,-0.0047,0.0059,-1.9730,20.2838,-43.4762,
4.5130,0.0208,-0.0344,1.0328,0.0066,0.0448,-0.0680,-0.0021,-0.0047,0.0059,-1.9730,20.2838,-43.4762,
4.5270,0.0208,-0.0344,1.0328,0.0017,0.0330,0.0199,-0.0021,-0.0047,0.0059,-1.9730,20.2838,-43.4762,
4.5280,0.0208,-0.0344,1.0328,0.0017,0.0330,0.0199,0.0022,-0.0044,0.0034,-1.9730,20.2838,-43.4762,
4.5290,0.0158,-0.0386,1.0286,0.0017,0.0330,0.0199,0.0022,-0.0044,0.0034,-1.9730,20.2838,-43.4762,
4.5580,0.0121,-0.0404,1.0129,0.0017,0.0330,0.0199,0.0022,-0.0044,0.0034,-1.9730,20.2838,-43.4762,
4.5600,0.0121,-0.0404,1.0129,0.0017,0.0330,0.0199,0.0022,-0.0044,0.0034,-1.9643,20.2042,-43.5322,
4.5800,0.0121,-0.0404,1.0129,0.0017,0.0330,0.0199,-0.0164,-0.0038,0.0010,-1.9643,20.2042,-43.5322,
4.5820,0.0144,-0.0416,1.0221,0.0017,0.0330,0.0199,-0.0164,-0.0038,0.0010,-1.9643,20.2042,-43.5322,
4.6060,0.0144,-0.0416,1.0221,0.0254,0.0613,0.0068,-0.0164,-0.0038,0.0010,-1.9643,20.2042,-43.5322,
4.6070,0.0167,-0.0400,1.0268,0.0254,0.0613,0.0068,-0.0164,-0.0038,0.0010,-1.9643,20.2042,-43.5322,
4.6100,0.0145,-0.0366,1.0246,0.0254,0.0613,0.0068,-0.0164,-0.0038,0.0010,-1.9643,20.2042,-43.5322,
4.6110,0.0145,-0.0366,1.0246,0.0254,0.0613,0.0068,-0.0137,0.0048,-0.0006,-1.9643,20.2042,-43.5322,
4.6250,0.0158,-0.0367,1.0212,0.0254,0.0613,0.0068,-0.0137,0.0048,-0.0006,-1.9643,20.2042,-43.5322,
4.6260,0.0158,-0.0367,1.0212,0.0254,0.0613,0.0068,-0.0137,0.0048,-0.0006,-2.0396,20.1396,-43.6160,
4.6460,0.0131,-0.0417,1.0345,0.0254,0.0613,0.0068,-0.0137,0.0048,-0.0006,-2.0396,20.1396,-43.6160,
4.6470,0.0131,-0.0417,1.0345,0.0254,0.0613,0.0068,-0.0357,0.0051,0.0010,-2.0396,20.1396,-43.6160,
4.6640,0.0131,-0.0417,1.0345,0.0020,0.0433,-0.0141,-0.0357,0.0051,0.0010,-2.0396,20.1396,-43.6160,
4.6650,0.0154,-0.0444,1.0300,0.0020,0.0433,-0.0141,-0.0357,0.0051,0.0010,-2.0396,20.1396,-43.6160,
4.6910,0.0156,-0.0435,1.0312,0.0020,0.0433,-0.0141,-0.0357,0.0051,0.0010,-2.0396,20.1396,-43.6160,
4.6930,0.0156,-0.0435,1.0312,0.0020,0.0433,-0.0141,-0.0265,0.0051,0.0019,-2.0396,20.1396,-43.6160,
4.6940,0.0156,-0.0435,1.0312,0.0020,0.0433,-0.0141,-0.0265,0.0051,0.0019,-2.0521,20.1398,-43.5907,
4.7130,0.0136,-0.0433,1.0240,0.0020,0.0433,-0.0141,-0.0265,0.0051,0.0019,-2.0521,20.1398,-43.5907,
4.7430,0.0169,-0.0417,1.0190,0.0020,0.0433,-0.0141,-0.0265,0.0051,0.0019,-2.0521,20.1398,-43.5907,
4.7450,0.0178,-0.0421,1.0250,0.0020,0.0433,-0.0141,-0.0265,0.0051,0.0019,-2.0521,20.1398,-43.5907,
4.7460,0.0178,-0.0421,1.0250,0.0020,0.0433,-0.0141,-0.0170,0.0069,0.0034,-2.0521,20.1398,-43.5907,
4.7460,0.0178,-0.0421,1.0250,0.0079,0.0369,0.0342,-0.0170,0.0069,0.0034,-2.0521,20.1398,-43.5907,
4.7580,0.0178,-0.0421,1.0250,0.0079,0.0369,0.0342,-0.0170,0.0069,0.0034,-2.0492,20.1881,-43.6133,
4.7790,0.0165,-0.0425,1.0385,0.0079,0.0369,0.0342,-0.0170,0.0069,0.0034,-2.0492,20.1881,-43.6133,
4.7810,0.0165,-0.0425,1.0385,0.0079,0.0369,0.0342,-0.0268,0.0060,0.0016,-2.0492,20.1881,-43.6133,
4.8000,0.0150,-0.0392,1.0218,0.0079,0.0369,0.0342,-0.0268,0.0060,0.0016,-2.0492,20.1881,-43.6133,
4.8020,0.0150,-0.0392,1.0218,0.0079,0.0369,0.0342,-0.0128,0.0005,0.0028,-2.0492,20.1881,-43.6133,
4.8020,0.0143,-0.0370,1.0118,0.0079,0.0369,0.0342,-0.0128,0.0005,0.0028,-2.0492,20.1881,-43.6133,
4.8030,0.0143,-0.0370,1.0118,0.0184,0.0347,-0.0126,-0.0128,0.0005,0.0028,-2.0492,20.1881,-43.6133,
4.8250,0.0143,-0.0370,1.0118,0.0184,0.0347,-0.0126,-0.0128,0.0005,0.0028,-2.0724,20.2173,-43.5866,
4.8260,0.0159,-0.0411,0.9932,0.0184,0.0347,-0.0126,-0.0128,0.0005,0.0028,-2.0724,20.2173,-43.5866,
4.8460,0.0171,-0.0498,1.0759,0.0184,0.0347,-0.0126,-0.0128,0.0005,0.0028,-2.0724,20.2173,-43.5866,
4.8470,0.0171,-0.0498,1.0759,0.0184,0.0347,-0.0126,-0.0497,0.0417,0.0034,-2.0724,20.2173,-43.5866,
4.8790,0.0171,-0.0498,1.0759,0.0153,0.0742,-0.0430,-0.0497,0.0417,0.0034,-2.0724,20.2173,-43.5866,
4.8810,0.0171,-0.0498,1.0759,0.0153,0.0742,-0.0430,-0.0124,-0.0221,0.0001,-2.0724,20.2173,-43.5866,
4.8810,0.0105,-0.0485,1.0222,0.0153,0.0742,-0.0430,-0.0124,-0.0221,0.0001,-2.0724,20.2173,-43.5866,
4.8820,0.0127,-0.0477,1.0189,0.0153,0.0742,-0.0430,-0.0124,-0.0221,0.0001,-2.0724,20.2173,-43.5866,
4.8900,0.0127,-0.0477,1.0189,0.0153,0.0742,-0.0430,-0.0124,-0.0221,0.0001,-2.0356,20.2295,-43.5589,
4.9140,0.0143,-0.0488,1.0310,0.0153,0.0742,-0.0430,-0.0124,-0.0221,0.0001,-2.0356,20.2295,-43.5589,
4.9370,0.0171,-0.0456,1.0227,0.0153,0.0742,-0.0430,-0.0124,-0.0221,0.0001,-2.0356,20.2295,-43.5589,
4.9380,0.0156,-0.0391,1.0206,0.0153,0.0742,-0.0430,-0.0124,-0.0221,0.0001,-2.0356,20.2295,-43.5589,
4.9390,0.0156,-0.0391,1.0206,0.0153,0.0742,-0.0430,0.0031,-0.0142,0.0022,-2.0356,20.2295,-43.5589,
4.9390,0.0156,-0.0391,1.0206,-0.0033,-0.0053,0.0640,0.0031,-0.0142,0.0022,-2.0356,20.2295,-43.5589,
4.9580,0.0164,-0.0381,1.0262,-0.0033,-0.0053,0.0640,0.0031,-0.0142,0.0022,-2.0356,20.2295,-43.5589,
4.9590,0.0164,-0.0381,1.0262,-0.0033,-0.0053,0.0640,-0.0082,0.0011,0.0022,-2.0356,20.2295,-43.5589,
4.9600,0.0164,-0.0381,1.0262,-0.0033,-0.0053,0.0640,-0.0082,0.0011,0.0022,-2.0218,20.2706,-43.5173,
4.9790,0.0175,-0.0382,1.0208,-0.0033,-0.0053,0.0640,-0.0082,0.0011,0.0022,-2.0218,20.2706,-43.5173,
5.0170,0.0149,-0.0466,1.0236,-0.0033,-0.0053,0.0640,-0.0082,0.0011,0.0022,-2.0218,20.2706,-43.5173,
5.0190,0.0107,-0.0515,1.0280,-0.0033,-0.0053,0.0640,-0.0082,0.0011,0.0022,-2.0218,20.2706,-43.5173,
5.0190,0.0107,-0.0515,1.0280,-0.0033,-0.0053,0.0640,-0.0311,0.0084,0.0016,-2.0218,20.2706,-43.5173,
5.0190,0.0107,-0.0515,1.0280,0.0171,0.0480,0.0014,-0.0311,0.0084,0.0016,-2.0218,20.2706,-43.5173,
5.0230,0.0107,-0.0515,1.0280,0.0171,0.0480,0.0014,-0.0311,0.0084,0.0016,-2.0185,20.3511,-43.4479,
5.0460,0.0081,-0.0535,1.0285,0.0171,0.0480,0.0014,-0.0311,0.0084,0.0016,-2.0185,20.3511,-43.4479,
5.0480,0.0081,-0.0535,1.0285,0.0171,0.0480,0.0014,-0.0244,0.0081,0.0022,-2.0185,20.3511,-43.4479,
5.0750,0.0104,-0.0525,1.0296,0.0171,0.0480,0.0014,-0.0244,0.0081,0.0022,-2.0185,20.3511,-43.4479,
5.0770,0.0104,-0.0525,1.0296,0.0171,0.0480,0.0014,-0.0152,-0.0053,0.0016,-2.0185,20.3511,-43.4479,
5.0770,0.0144,-0.0503,1.0278,0.0171,0.0480,0.0014,-0.0152,-0.0053,0.0016,-2.0185,20.3511,-43.4479,
5.0780,0.0144,-0.0503,1.0278,0.0073,0.0472,-0.0113,-0.0152,-0.0053,0.0016,-2.0185,20.3511,-43.4479,
5.0900,0.0144,-0.0503,1.0278,0.0073,0.0472,-0.0113,-0.0152,-0.0053,0.0016,-1.9799,20.3920,-43.4440,
5.1130,0.0156,-0.0481,1.0279,0.0073,0.0472,-0.0113,-0.0152,-0.0053,0.0016,-1.9799,20.3920,-43.4440,
5.1150,0.0156,-0.0481,1.0279,0.0073,0.0472,-0.0113,-0.0140,-0.0065,0.0004,-1.9799,20.3920,-43.4440,
5.1150,0.0178,-0.0465,1.0205,0.0073,0.0472,-0.0113,-0.0140,-0.0065,0.0004,-1.9799,20.3920,-43.4440,
5.1530,0.0178,-0.0465,1.0205,-0.0225,-0.0036,0.0315,-0.0140,-0.0065,0.0004,-1.9799,20.3920,-43.4440,
5.1540,0.0178,-0.0465,1.0205,-0.0225,-0.0036,0.0315,-0.0375,0.0032,0.0037,-1.9799,20.3920,-43.4440,
5.1550,0.0139,-0.0461,1.0128,-0.0225,-0.0036,0.0315,-0.0375,0.0032,0.0037,-1.9799,20.3920,-43.4440,
5.1550,0.0164,-0.0489,1.0241,-0.0225,-0.0036,0.0315,-0.0375,0.0032,0.0037,-1.9799,20.3920,-43.4440,
5.1580,0.0164,-0.0489,1.0241,-0.0225,-0.0036,0.0315,-0.0375,0.0032,0.0037,-1.9162,20.4545,-43.4122,
5.1800,0.0164,-0.0504,1.0395,-0.0225,-0.0036,0.0315,-0.0375,0.0032,0.0037,-1.9162,20.4545,-43.4122,
5.2100,0.0150,-0.0439,1.0120,-0.0225,-0.0036,0.0315,-0.0375,0.0032,0.0037,-1.9162,20.4545,-43.4122,
5.2120,0.0155,-0.0415,1.0317,-0.0225,-0.0036,0.0315,-0.0375,0.0032,0.0037,-1.9162,20.4545,-43.4122,
5.2130,0.0155,-0.0415,1.0317,-0.0225,-0.0036,0.0315,0.0034,-0.0047,-0.0003,-1.9162,20.4545,-43.4122,
5.2130,0.0155,-0.0415,1.0317,0.0176,0.0355,-0.0445,0.0034,-0.0047,-0.0003,-1.9162,20.4545,-43.4122,
5.2240,0.0155,-0.0415,1.0317,0.0176,0.0355,-0.0445,0.0034,-0.0047,-0.0003,-1.8992,20.5319,-43.4582,
5.2460,0.0155,-0.0415,1.0317,0.0176,0.0355,-0.0445,-0.0134,0.0005,0.0052,-1.8992,20.5319,-43.4582,
5.2480,0.0183,-0.0420,1.0269,0.0176,0.0355,-0.0445,-0.0134,0.0005,0.0052,-1.8992,20.5319,-43.4582,
5.2890,0.0161,-0.0461,1.0212,0.0176,0.0355,-0.0445,-0.0134,0.0005,0.0052,-1.8992,20.5319,-43.4582,
5.2900,0.0161,-0.0461,1.0212,0.0150,0.0650,0.0270,-0.0134,0.0005,0.0052,-1.8992,20.5319,-43.4582,
5.2910,0.0116,-0.0522,1.0379,0.0150,0.0650,0.0270,-0.0134,0.0005,0.0052,-1.8992,20.5319,-43.4582,
5.2920,0.0107,-0.0532,1.0159,0.0150,0.0650,0.0270,-0.0134,0.0005,0.0052,-1.8992,20.5319,-43.4582,
5.2920,0.0107,-0.0532,1.0159,0.0150,0.0650,0.0270,-0.0241,0.0029,0.0025,-1.8992,20.5319,-43.4582,
5.2930,0.0107,-0.0532,1.0159,0.0150,0.0650,0.0270,-0.0241,0.0029,0.0025,-1.8240,20.5745,-43.4529,
5.3130,0.0139,-0.0503,1.0201,0.0150,0.0650,0.0270,-0.0241,0.0029,0.0025,-1.8240,20.5745,-43.4529,
5.3150,0.0139,-0.0503,1.0201,0.0150,0.0650,0.0270,-0.0057,-0.0045,0.0007,-1.8240,20.5745,-43.4529,
5.3480,0.0139,-0.0503,1.0201,0.0150,0.0650,0.0270,-0.0081,0.0041,-0.0033,-1.8240,20.5745,-43.4529,
5.3500,0.0134,-0.0524,1.0218,0.0150,0.0650,0.0270,-0.0081,0.0041,-0.0033,-1.8240,20.5745,-43.4529,
5.3510,0.0127,-0.0558,1.0272,0.0150,0.0650,0.0270,-0.0081,0.0041,-0.0033,-1.8240,20.5745,-43.4529,
5.3520,0.0127,-0.0558,1.0272,-0.0053,0.0229,-0.0001,-0.0081,0.0041,-0.0033,-1.8240,20.5745,-43.4529,
5.3570,0.0127,-0.0558,1.0272,-0.0053,0.0229,-0.0001,-0.0081,0.0041,-0.0033,-1.8231,20.6055,-43.3996,
5.3790,0.0151,-0.0557,1.0212,-0.0053,0.0229,-0.0001,-0.0081,0.0041,-0.0033,-1.8231,20.6055,-43.3996,
5.4250,0.0140,-0.0547,1.0269,-0.0053,0.0229,-0.0001,-0.0081,0.0041,-0.0033,-1.8231,20.6055,-43.3996,
5.4260,0.0140,-0.0547,1.0269,-0.0053,0.0229,-0.0001,-0.0063,0.0072,-0.0027,-1.8231,20.6055,-43.3996,
5.4270,0.0140,-0.0547,1.0269,-0.0053,0.0229,-0.0001,-0.0054,0.0068,-0.0014,-1.8231,20.6055,-43.3996,
5.4280,0.0142,-0.0509,1.0251,-0.0053,0.0229,-0.0001,-0.0054,0.0068,-0.0014,-1.8231,20.6055,-43.3996,
5.4280,0.0139,-0.0499,1.0192,-0.0053,0.0229,-0.0001,-0.0054,0.0068,-0.0014,-1.8231,20.6055,-43.3996,
5.4290,0.0139,-0.0499,1.0192,-0.0053,0.0229,-0.0001,-0.0054,0.0068,-0.0014,-1.8575,20.6428,-43.4113,
5.4300,0.0139,-0.0499,1.0192,-0.0006,-0.0099,-0.0200,-0.0054,0.0068,-0.0014,-1.8575,20.6428,-43.4113,
5.4460,0.0137,-0.0513,1.0207,-0.0006,-0.0099,-0.0200,-0.0054,0.0068,-0.0014,-1.8575,20.6428,-43.4113,
5.4830,0.0137,-0.0513,1.0207,0.0058,0.0069,-0.0120,-0.0054,0.0068,-0.0014,-1.8575,20.6428,-43.4113,
5.4850,0.0138,-0.0511,1.0377,0.0058,0.0069,-0.0120,-0.0054,0.0068,-0.0014,-1.8575,20.6428,-43.4113,
5.4860,0.0138,-0.0511,1.0377,0.0058,0.0069,-0.0120,-0.0215,0.0059,0.0001,-1.8575,20.6428,-43.4113,
5.4860,0.0136,-0.0498,1.0316,0.0058,0.0069,-0.0120,-0.0215,0.0059,0.0001,-1.8575,20.6428,-43.4113,
5.4910,0.0136,-0.0498,1.0316,0.0058,0.0069,-0.0120,-0.0215,0.0059,0.0001,-1.7947,20.6741,-43.4328,
5.5130,0.0125,-0.0463,1.0179,0.0058,0.0069,-0.0120,-0.0215,0.0059,0.0001,-1.7947,20.6741,-43.4328,
5.5150,0.0125,-0.0463,1.0179,0.0058,0.0069,-0.0120,-0.0032,-0.0063,-0.0017,-1.7947,20.6741,-43.4328,
5.5580,0.0145,-0.0498,1.0122,0.0058,0.0069,-0.0120,-0.0032,-0.0063,-0.0017,-1.7947,20.6741,-43.4328,
5.5600,0.0145,-0.0498,1.0122,0.0058,0.0069,-0.0120,-0.0032,-0.0063,-0.0017,-1.7936,20.7048,-43.3923,
5.5610,0.0131,-0.0558,1.0015,0.0058,0.0069,-0.0120,-0.0032,-0.0063,-0.0017,-1.7936,20.7048,-43.3923,
5.5620,0.0131,-0.0558,1.0015,0.0058,0.0069,-0.0120,-0.0414,0.0239,0.0010,-1.7936,20.7048,-43.3923,
5.5620,0.0158,-0.0618,1.0696,0.0058,0.0069,-0.0120,-0.0414,0.0239,0.0010,-1.7936,20.7048,-43.3923,
5.5630,0.0158,-0.0618,1.0696,0.0114,0.0439,0.0358,-0.0414,0.0239,0.0010,-1.7936,20.7048,-43.3923,
5.6220,0.0158,-0.0618,1.0696,0.0114,0.0439,0.0358,0.0029,-0.0005,-0.0048,-1.7936,20.7048,-43.3923,
5.6250,0.0158,-0.0618,1.0696,0.0114,0.0439,0.0358,-0.0044,-0.0148,-0.0027,-1.7936,20.7048,-43.3923,
5.6270,0.0104,-0.0584,1.0205,0.0114,0.0439,0.0358,-0.0044,-0.0148,-0.0027,-1.7936,20.7048,-43.3923,
5.6280,0.0096,-0.0560,1.0152,0.0114,0.0439,0.0358,-0.0044,-0.0148,-0.0027,-1.7936,20.7048,-43.3923,
5.6290,0.0150,-0.0562,1.0351,0.0114,0.0439,0.0358,-0.0044,-0.0148,-0.0027,-1.7936,20.7048,-43.3923,
5.6310,0.0150,-0.0562,1.0351,0.0051,-0.0036,0.0086,-0.0044,-0.0148,-0.0027,-1.7936,20.7048,-43.3923,
5.6320,0.0150,-0.0562,1.0351,0.0051,-0.0036,0.0086,-0.0044,-0.0148,-0.0027,-1.8513,20.7716,-43.3645,
5.6480,0.0154,-0.0498,1.0153,0.0051,-0.0036,0.0086,-0.0044,-0.0148,-0.0027,-1.8513,20.7716,-43.3645,
5.6910,0.0154,-0.0498,1.0153,0.0051,-0.0036,0.0086,0.0111,-0.0017,-0.0002,-1.8513,20.7716,-43.3645,
5.6930,0.0154,-0.0498,1.0153,0.0051,-0.0036,0.0086,0.0111,-0.0017,-0.0002,-1.9211,20.8485,-43.3108,
5.6930,0.0154,-0.0456,1.0291,0.0051,-0.0036,0.0086,0.0111,-0.0017,-0.0002,-1.9211,20.8485,-43.3108,
5.6940,0.0170,-0.0482,1.0253,0.0051,-0.0036,0.0086,0.0111,-0.0017,-0.0002,-1.9211,20.8485,-43.3108,
5.6970,0.0170,-0.0482,1.0253,0.0051,-0.0036,0.0086,-0.0154,-0.0008,0.0001,-1.9211,20.8485,-43.3108,
5.6980,0.0169,-0.0529,1.0262,0.0051,-0.0036,0.0086,-0.0154,-0.0008,0.0001,-1.9211,20.8485,-43.3108,
5.6980,0.0169,-0.0529,1.0262,-0.0121,-0.0130,-0.0183,-0.0154,-0.0008,0.0001,-1.9211,20.8485,-43.3108,
5.7580,0.0117,-0.0584,1.0247,-0.0121,-0.0130,-0.0183,-0.0154,-0.0008,0.0001,-1.9211,20.8485,-43.3108,
5.7600,0.0073,-0.0607,1.0262,-0.0121,-0.0130,-0.0183,-0.0154,-0.0008,0.0001,-1.9211,20.8485,-43.3108,
5.7600,0.0094,-0.0603,1.0290,-0.0121,-0.0130,-0.0183,-0.0154,-0.0008,0.0001,-1.9211,20.8485,-43.3108,
5.7610,0.0094,-0.0603,1.0290,-0.0121,-0.0130,-0.0183,-0.0041,0.0084,-0.0014,-1.9211,20.8485,-43.3108,
5.7620,0.0094,-0.0603,1.0290,0.0250,0.0538,-0.0013,-0.0041,0.0084,-0.0014,-1.9211,20.8485,-43.3108,
5.7630,0.0094,-0.0603,1.0290,0.0250,0.0538,-0.0013,-0.0041,0.0084,-0.0014,-1.9327,20.8578,-43.3106,
5.7810,0.0094,-0.0603,1.0290,0.0250,0.0538,-0.0013,-0.0008,-0.0026,-0.0024,-1.9327,20.8578,-43.3106,
5.7830,0.0114,-0.0595,1.0296,0.0250,0.0538,-0.0013,-0.0008,-0.0026,-0.0024,-1.9327,20.8578,-43.3106,
5.8260,0.0114,-0.0595,1.0296,0.0250,0.0538,-0.0013,0.0102,-0.0069,-0.0014,-1.9327,20.8578,-43.3106,
5.8280,0.0114,-0.0595,1.0296,0.0250,0.0538,-0.0013,0.0102,-0.0069,-0.0014,-2.0188,20.8446,-43.3016,
5.8290,0.0120,-0.0581,1.0240,0.0250,0.0538,-0.0013,0.0102,-0.0069,-0.0014,-2.0188,20.8446,-43.3016,
5.8300,0.0142,-0.0574,1.0269,0.0250,0.0538,-0.0013,0.0102,-0.0069,-0.0014,-2.0188,20.8446,-43.3016,
5.8380,0.0138,-0.0532,1.0373,0.0250,0.0538,-0.0013,0.0102,-0.0069,-0.0014,-2.0188,20.8446,-43.3016,
5.8390,0.0138,-0.0532,1.0373,-0.0378,-0.0541,0.0220,0.0102,-0.0069,-0.0014,-2.0188,20.8446,-43.3016,
5.8930,0.0126,-0.0533,0.9871,-0.0378,-0.0541,0.0220,0.0102,-0.0069,-0.0014,-2.0188,20.8446,-43.3016,
5.8950,0.0126,-0.0533,0.9871,-0.0378,-0.0541,0.0220,0.0102,-0.0069,-0.0014,-2.0506,20.9199,-43.3494,
5.8960,0.0182,-0.0580,1.0511,-0.0378,-0.0541,0.0220,0.0102,-0.0069,-0.0014,-2.0506,20.9199,-43.3494,
5.8970,0.0182,-0.0580,1.0511,-0.0378,-0.0541,0.0220,0.0050,-0.0081,-0.0011,-2.0506,20.9199,-43.3494,
5.8970,0.0182,-0.0580,1.0511,-0.0378,-0.0541,0.0220,-0.0066,-0.0011,-0.0017,-2.0506,20.9199,-43.3494,
5.8980,0.0138,-0.0588,1.0202,-0.0378,-0.0541,0.0220,-0.0066,-0.0011,-0.0017,-2.0506,20.9199,-43.3494,
5.8980,0.0138,-0.0588,1.0202,-0.0079,-0.0194,0.0352,-0.0066,-0.0011,-0.0017,-2.0506,20.9199,-43.3494,
5.9140,0.0120,-0.0520,1.0213,-0.0079,-0.0194,0.0352,-0.0066,-0.0011,-0.0017,-2.0506,20.9199,-43.3494,
5.9580,0.0151,-0.0483,1.0371,-0.0079,-0.0194,0.0352,-0.0066,-0.0011,-0.0017,-2.0506,20.9199,-43.3494,
5.9590,0.0164,-0.0505,1.0164,-0.0079,-0.0194,0.0352,-0.0066,-0.0011,-0.0017,-2.0506,20.9199,-43.3494,
5.9600,0.0164,-0.0505,1.0164,-0.0079,-0.0194,0.0352,0.0038,-0.0078,0.0022,-2.0506,20.9199,-43.3494,
5.9600,0.0164,-0.0505,1.0164,-0.0079,-0.0194,0.0352,0.0038,-0.0078,0.0022,-2.0973,20.9680,-43.3095,
5.9720,0.0133,-0.0563,1.0365,-0.0079,-0.0194,0.0352,0.0038,-0.0078,0.0022,-2.0973,20.9680,-43.3095,
5.9730,0.0133,-0.0563,1.0365,0.0035,-0.0153,-0.0676,0.0038,-0.0078,0.0022,-2.0973,20.9680,-43.3095,
5.9740,0.0133,-0.0563,1.0365,0.0035,-0.0153,-0.0676,0.0041,0.0001,0.0038,-2.0973,20.9680,-43.3095,
6.0260,0.0133,-0.0563,1.0365,0.0035,-0.0153,-0.0676,0.0041,0.0001,0.0038,-2.1444,20.9949,-43.3224,
6.0280,0.0133,-0.0563,1.0365,0.0035,-0.0153,-0.0676,-0.0017,-0.0072,0.0019,-2.1444,20.9949,-43.3224,
6.0280,0.0109,-0.0566,1.0131,0.0035,-0.0153,-0.0676,-0.0017,-0.0072,0.0019,-2.1444,20.9949,-43.3224,
6.0290,0.0107,-0.0568,1.0184,0.0035,-0.0153,-0.0676,-0.0017,-0.0072,0.0019,-2.1444,20.9949,-43.3224,
6.0300,0.0110,-0.0613,1.0308,0.0035,-0.0153,-0.0676,-0.0017,-0.0072,0.0019,-2.1444,20.9949,-43.3224,
6.0310,0.0110,-0.0613,1.0308,0.0012,0.0303,0.0523,-0.0017,-0.0072,0.0019,-2.1444,20.9949,-43.3224,
6.0930,0.0127,-0.0630,1.0251,0.0012,0.0303,0.0523,-0.0017,-0.0072,0.0019,-2.1444,20.9949,-43.3224,
6.0950,0.0127,-0.0630,1.0251,0.0012,0.0303,0.0523,-0.0047,-0.0020,-0.0005,-2.1444,20.9949,-43.3224,
6.0960,0.0127,-0.0630,1.0251,0.0012,0.0303,0.0523,0.0050,-0.0011,-0.0039,-2.1444,20.9949,-43.3224,
6.0970,0.0126,-0.0609,1.0236,0.0012,0.0303,0.0523,0.0050,-0.0011,-0.0039,-2.1444,20.9949,-43.3224,
6.0970,0.0128,-0.0601,1.0268,0.0012,0.0303,0.0523,0.0050,-0.0011,-0.0039,-2.1444,20.9949,-43.3224,
6.0980,0.0128,-0.0601,1.0268,0.0012,0.0303,0.0523,0.0050,-0.0011,-0.0039,-2.1800,21.0019,-43.3617,
6.1080,0.0140,-0.0580,1.0307,0.0012,0.0303,0.0523,0.0050,-0.0011,-0.0039,-2.1800,21.0019,-43.3617,
6.1090,0.0140,-0.0580,1.0307,-0.0292,-0.0412,-0.0361,0.0050,-0.0011,-0.0039,-2.1800,21.0019,-43.3617,
6.1620,0.0147,-0.0576,1.0206,-0.0292,-0.0412,-0.0361,0.0050,-0.0011,-0.0039,-2.1800,21.0019,-43.3617,
6.1650,0.0147,-0.0576,1.0206,-0.0292,-0.0412,-0.0361,0.0096,0.0056,-0.0024,-2.1800,21.0019,-43.3617,
6.1650,0.0128,-0.0582,1.0218,-0.0292,-0.0412,-0.0361,0.0096,0.0056,-0.0024,-2.1800,21.0019,-43.3617,
6.1660,0.0128,-0.0582,1.0218,-0.0292,-0.0412,-0.0361,0.0096,0.0056,-0.0024,-2.1442,20.9945,-43.3352,
6.1680,0.0128,-0.0582,1.0218,-0.0292,-0.0412,-0.0361,-0.0011,0.0029,-0.0014,-2.1442,20.9945,-43.3352,
6.1690,0.0131,-0.0581,1.0290,-0.0292,-0.0412,-0.0361,-0.0011,0.0029,-0.0014,-2.1442,20.9945,-43.3352,
6.1700,0.0131,-0.0581,1.0290,-0.0056,-0.0492,0.0176,-0.0011,0.0029,-0.0014,-2.1442,20.9945,-43.3352,
6.2280,0.0131,-0.0581,1.0290,-0.0056,-0.0492,0.0176,0.0032,-0.0060,-0.0014,-2.1442,20.9945,-43.3352,
6.2310,0.0134,-0.0548,1.0256,-0.0056,-0.0492,0.0176,0.0032,-0.0060,-0.0014,-2.1442,20.9945,-43.3352,
6.2320,0.0142,-0.0500,1.0240,-0.0056,-0.0492,0.0176,0.0032,-0.0060,-0.0014,-2.1442,20.9945,-43.3352,
6.2330,0.0142,-0.0500,1.0240,-0.0056,-0.0492,0.0176,0.0032,-0.0060,-0.0014,-2.1211,20.9543,-43.4011,
6.2450,0.0142,-0.0500,1.0240,0.0007,-0.0143,-0.0052,0.0032,-0.0060,-0.0014,-2.1211,20.9543,-43.4011,
6.2470,0.0142,-0.0500,1.0240,0.0007,-0.0143,-0.0052,-0.0258,0.0142,0.0016,-2.1211,20.9543,-43.4011,
6.2480,0.0127,-0.0524,1.0152,0.0007,-0.0143,-0.0052,-0.0258,0.0142,0.0016,-2.1211,20.9543,-43.4011,
6.2480,0.0123,-0.0580,1.0020,0.0007,-0.0143,-0.0052,-0.0258,0.0142,0.0016,-2.1211,20.9543,-43.4011,
6.2910,0.0123,-0.0580,1.0020,0.0007,-0.0143,-0.0052,-0.0057,0.0065,-0.0030,-2.1211,20.9543,-43.4011,
6.2930,0.0183,-0.0648,1.0596,0.0007,-0.0143,-0.0052,-0.0057,0.0065,-0.0030,-2.1211,20.9543,-43.4011,
6.2940,0.0120,-0.0635,1.0239,0.0007,-0.0143,-0.0052,-0.0057,0.0065,-0.0030,-2.1211,20.9543,-43.4011,
6.2940,0.0120,-0.0635,1.0239,0.0007,-0.0143,-0.0052,-0.0057,0.0065,-0.0030,-2.1339,20.9553,-43.3501,
6.3060,0.0120,-0.0635,1.0239,-0.0048,0.0298,-0.0873,-0.0057,0.0065,-0.0030,-2.1339,20.9553,-43.3501,
6.3080,0.0090,-0.0624,1.0137,-0.0048,0.0298,-0.0873,-0.0057,0.0065,-0.0030,-2.1339,20.9553,-43.3501,
6.3600,0.0090,-0.0624,1.0137,-0.0048,0.0298,-0.0873,-0.0075,-0.0158,-0.0008,-2.1339,20.9553,-43.3501,
6.3630,0.0111,-0.0614,1.0368,-0.0048,0.0298,-0.0873,-0.0075,-0.0158,-0.0008,-2.1339,20.9553,-43.3501,
6.3640,0.0111,-0.0614,1.0368,-0.0048,0.0298,-0.0873,-0.0075,-0.0158,-0.0008,-2.1322,20.9954,-43.3219,
6.3650,0.0143,-0.0553,1.0169,-0.0048,0.0298,-0.0873,-0.0075,-0.0158,-0.0008,-2.1322,20.9954,-43.3219,
6.3800,0.0143,-0.0553,1.0169,-0.0048,0.0298,-0.0873,0.0108,-0.0020,0.0001,-2.1322,20.9954,-43.3219,
6.3820,0.0143,-0.0522,1.0164,-0.0048,0.0298,-0.0873,0.0108,-0.0020,0.0001,-2.1322,20.9954,-43.3219,
6.3830,0.0165,-0.0542,1.0305,-0.0048,0.0298,-0.0873,0.0108,-0.0020,0.0001,-2.1322,20.9954,-43.3219,
6.3830,0.0165,-0.0542,1.0305,-0.0087,-0.0595,0.0772,0.0108,-0.0020,0.0001,-2.1322,20.9954,-43.3219,
6.4250,0.0165,-0.0542,1.0305,-0.0087,-0.0595,0.0772,-0.0240,0.0047,0.0013,-2.1322,20.9954,-43.3219,
6.4270,0.0144,-0.0570,1.0288,-0.0087,-0.0595,0.0772,-0.0240,0.0047,0.0013,-2.1322,20.9954,-43.3219,
6.4270,0.0144,-0.0570,1.0288,-0.0087,-0.0595,0.0772,-0.0240,0.0047,0.0013,-2.0829,21.0184,-43.2802,
6.4280,0.0096,-0.0640,1.0257,-0.0087,-0.0595,0.0772,-0.0240,0.0047,0.0013,-2.0829,21.0184,-43.2802,
6.4410,0.0096,-0.0640,1.0257,0.0109,0.0291,-0.0091,-0.0240,0.0047,0.0013,-2.0829,21.0184,-43.2802,
6.4430,0.0078,-0.0652,1.0195,0.0109,0.0291,-0.0091,-0.0240,0.0047,0.0013,-2.0829,21.0184,-43.2802,
6.4430,0.0078,-0.0652,1.0195,0.0109,0.0291,-0.0091,-0.0084,0.0035,0.0007,-2.0829,21.0184,-43.2802,
6.4920,0.0085,-0.0651,1.0308,0.0109,0.0291,-0.0091,-0.0084,0.0035,0.0007,-2.0829,21.0184,-43.2802,
6.4940,0.0085,-0.0651,1.0308,0.0109,0.0291,-0.0091,-0.0084,0.0035,0.0007,-2.0331,21.0292,-43.3163,
6.4950,0.0111,-0.0657,1.0275,0.0109,0.0291,-0.0091,-0.0084,0.0035,0.0007,-2.0331,21.0292,-43.3163,
6.4960,0.0111,-0.0657,1.0275,0.0109,0.0291,-0.0091,-0.0075,-0.0045,-0.0017,-2.0331,21.0292,-43.3163,
6.5140,0.0129,-0.0649,1.0225,0.0109,0.0291,-0.0091,-0.0075,-0.0045,-0.0017,-2.0331,21.0292,-43.3163,
6.5180,0.0136,-0.0623,1.0264,0.0109,0.0291,-0.0091,-0.0075,-0.0045,-0.0017,-2.0331,21.0292,-43.3163,
6.5190,0.0136,-0.0623,1.0264,0.0109,0.0291,-0.0091,0.0075,-0.0060,-0.0021,-2.0331,21.0292,-43.3163,
6.5200,0.0136,-0.0623,1.0264,-0.0322,-0.0413,0.0065,0.0075,-0.0060,-0.0021,-2.0331,21.0292,-43.3163,
6.5580,0.0136,-0.0623,1.0264,-0.0322,-0.0413,0.0065,0.0121,-0.0057,-0.0027,-2.0331,21.0292,-43.3163,
6.5600,0.0136,-0.0623,1.0264,-0.0322,-0.0413,0.0065,0.0121,-0.0057,-0.0027,-2.0214,21.0310,-43.2773,
6.5600,0.0118,-0.0591,1.0256,-0.0322,-0.0413,0.0065,0.0121,-0.0057,-0.0027,-2.0214,21.0310,-43.2773,
6.5610,0.0106,-0.0598,1.0084,-0.0322,-0.0413,0.0065,0.0121,-0.0057,-0.0027,-2.0214,21.0310,-43.2773,
6.5770,0.0106,-0.0598,1.0084,-0.0135,-0.0548,0.0137,0.0121,-0.0057,-0.0027,-2.0214,21.0310,-43.2773,
6.5780,0.0164,-0.0641,1.0225,-0.0135,-0.0548,0.0137,0.0121,-0.0057,-0.0027,-2.0214,21.0310,-43.2773,
6.6260,0.0164,-0.0641,1.0225,-0.0135,-0.0548,0.0137,0.0121,-0.0057,-0.0027,-2.0339,21.0423,-43.2128,
6.6290,0.0126,-0.0635,1.0393,-0.0135,-0.0548,0.0137,0.0121,-0.0057,-0.0027,-2.0339,21.0423,-43.2128,
6.6300,0.0149,-0.0551,1.0071,-0.0135,-0.0548,0.0137,0.0121,-0.0057,-0.0027,-2.0339,21.0423,-43.2128,
6.6310,0.0149,-0.0551,1.0071,-0.0135,-0.0548,0.0137,0.0017,-0.0005,-0.0024,-2.0339,21.0423,-43.2128,
6.6470,0.0139,-0.0548,1.0383,-0.0135,-0.0548,0.0137,0.0017,-0.0005,-0.0024,-2.0339,21.0423,-43.2128,
6.6480,0.0139,-0.0548,1.0383,-0.0135,-0.0548,0.0137,0.0130,-0.0121,0.0001,-2.0339,21.0423,-43.2128,
6.6540,0.0172,-0.0555,1.0173,-0.0135,-0.0548,0.0137,0.0130,-0.0121,0.0001,-2.0339,21.0423,-43.2128,
6.6550,0.0172,-0.0555,1.0173,-0.0096,-0.0341,0.0116,0.0130,-0.0121,0.0001,-2.0339,21.0423,-43.2128,
6.6920,0.0111,-0.0604,1.0312,-0.0096,-0.0341,0.0116,0.0130,-0.0121,0.0001,-2.0339,21.0423,-43.2128,
6.6940,0.0111,-0.0604,1.0312,-0.0096,-0.0341,0.0116,0.0130,-0.0121,0.0001,-2.0449,21.0609,-43.2248,
6.6940,0.0111,-0.0604,1.0312,-0.0096,-0.0341,0.0116,0.0038,-0.0051,0.0016,-2.0449,21.0609,-43.2248,
6.7140,0.0099,-0.0614,1.0250,-0.0096,-0.0341,0.0116,0.0038,-0.0051,0.0016,-2.0449,21.0609,-43.2248,
6.7160,0.0099,-0.0614,1.0250,0.0005,0.0119,-0.0547,0.0038,-0.0051,0.0016,-2.0449,21.0609,-43.2248,
6.7170,0.0099,-0.0614,1.0250,0.0005,0.0119,-0.0547,0.0166,-0.0103,0.0001,-2.0449,21.0609,-43.2248,
6.7170,0.0136,-0.0602,1.0123,0.0005,0.0119,-0.0547,0.0166,-0.0103,0.0001,-2.0449,21.0609,-43.2248,
6.7590,0.0136,-0.0602,1.0123,0.0005,0.0119,-0.0547,0.0121,-0.0017,-0.0002,-2.0449,21.0609,-43.2248,
6.7600,0.0140,-0.0636,1.0266,0.0005,0.0119,-0.0547,0.0121,-0.0017,-0.0002,-2.0449,21.0609,-43.2248,
6.7600,0.0143,-0.0662,1.0278,0.0005,0.0119,-0.0547,0.0121,-0.0017,-0.0002,-2.0449,21.0609,-43.2248,
6.7610,0.0143,-0.0662,1.0278,0.0005,0.0119,-0.0547,0.0121,-0.0017,-0.0002,-2.0076,21.0940,-43.1572,
6.7800,0.0140,-0.0660,1.0235,0.0005,0.0119,-0.0547,0.0121,-0.0017,-0.0002,-2.0076,21.0940,-43.1572,
6.7910,0.0145,-0.0625,1.0197,0.0005,0.0119,-0.0547,0.0121,-0.0017,-0.0002,-2.0076,21.0940,-43.1572,
6.7910,0.0145,-0.0625,1.0197,0.0005,0.0119,-0.0547,0.0353,0.0026,0.0007,-2.0076,21.0940,-43.1572,
6.7930,0.0145,-0.0625,1.0197,-0.0236,-0.0492,-0.0094,0.0353,0.0026,0.0007,-2.0076,21.0940,-43.1572,
6.8240,0.0137,-0.0596,1.0261,-0.0236,-0.0492,-0.0094,0.0353,0.0026,0.0007,-2.0076,21.0940,-43.1572,
6.8260,0.0137,-0.0596,1.0261,-0.0236,-0.0492,-0.0094,0.0353,0.0026,0.0007,-1.9092,21.1184,-43.1394,
6.8460,0.0137,-0.0596,1.0261,-0.0236,-0.0492,-0.0094,0.0319,0.0050,0.0019,-1.9092,21.1184,-43.1394,
6.8480,0.0104,-0.0592,1.0186,-0.0236,-0.0492,-0.0094,0.0319,0.0050,0.0019,-1.9092,21.1184,-43.1394,
6.8490,0.0106,-0.0577,1.0151,-0.0236,-0.0492,-0.0094,0.0319,0.0050,0.0019,-1.9092,21.1184,-43.1394,
6.8490,0.0106,-0.0577,1.0151,0.0034,-0.0926,-0.0059,0.0319,0.0050,0.0019,-1.9092,21.1184,-43.1394,
6.8910,0.0106,-0.0577,1.0151,0.0034,-0.0926,-0.0059,0.0197,0.0038,0.0001,-1.9092,21.1184,-43.1394,
6.8930,0.0106,-0.0577,1.0151,0.0034,-0.0926,-0.0059,0.0197,0.0038,0.0001,-1.8845,21.1187,-43.1642,
6.8940,0.0105,-0.0551,1.0283,0.0034,-0.0926,-0.0059,0.0197,0.0038,0.0001,-1.8845,21.1187,-43.1642,
6.8940,0.0114,-0.0515,1.0304,0.0034,-0.0926,-0.0059,0.0197,0.0038,0.0001,-1.8845,21.1187,-43.1642,
6.9140,0.0114,-0.0515,1.0304,0.0034,-0.0926,-0.0059,0.0313,-0.0029,-0.0033,-1.8845,21.1187,-43.1642,
6.9150,0.0132,-0.0492,1.0214,0.0034,-0.0926,-0.0059,0.0313,-0.0029,-0.0033,-1.8845,21.1187,-43.1642,
6.9280,0.0132,-0.0492,1.0214,-0.0228,-0.0387,-0.0379,0.0313,-0.0029,-0.0033,-1.8845,21.1187,-43.1642,
6.9290,0.0101,-0.0516,1.0048,-0.0228,-0.0387,-0.0379,0.0313,-0.0029,-0.0033,-1.8845,21.1187,-43.1642,
6.9580,0.0101,-0.0516,1.0048,-0.0228,-0.0387,-0.0379,-0.0176,0.0252,-0.0014,-1.8845,21.1187,-43.1642,
6.9590,0.0123,-0.0599,0.9929,-0.0228,-0.0387,-0.0379,-0.0176,0.0252,-0.0014,-1.8845,21.1187,-43.1642,
6.9590,0.0123,-0.0599,0.9929,-0.0228,-0.0387,-0.0379,-0.0176,0.0252,-0.0014,-1.8857,21.0774,-43.2311,
6.9800,0.0150,-0.0664,1.0664,-0.0228,-0.0387,-0.0379,-0.0176,0.0252,-0.0014,-1.8857,21.0774,-43.2311,
6.9860,0.0110,-0.0632,1.0173,-0.0228,-0.0387,-0.0379,-0.0176,0.0252,-0.0014,-1.8857,21.0774,-43.2311,
6.9860,0.0110,-0.0632,1.0173,-0.0228,-0.0387,-0.0379,-0.0060,0.0203,-0.0048,-1.8857,21.0774,-43.2311,
6.9870,0.0110,-0.0632,1.0173,-0.0063,0.0352,-0.0260,-0.0060,0.0203,-0.0048,-1.8857,21.0774,-43.2311,
7.0260,0.0110,-0.0632,1.0173,-0.0063,0.0352,-0.0260,-0.0060,0.0203,-0.0048,-1.8984,21.0781,-43.1929,
7.0270,0.0071,-0.0615,1.0118,-0.0063,0.0352,-0.0260,-0.0060,0.0203,-0.0048,-1.8984,21.0781,-43.1929,
7.0460,0.0115,-0.0602,1.0360,-0.0063,0.0352,-0.0260,-0.0060,0.0203,-0.0048,-1.8984,21.0781,-43.1929,
7.0480,0.0126,-0.0557,1.0178,-0.0063,0.0352,-0.0260,-0.0060,0.0203,-0.0048,-1.8984,21.0781,-43.1929,
7.0490,0.0126,-0.0557,1.0178,-0.0063,0.0352,-0.0260,-0.0115,-0.0133,-0.0075,-1.8984,21.0781,-43.1929,
7.0660,0.0109,-0.0532,1.0242,-0.0063,0.0352,-0.0260,-0.0115,-0.0133,-0.0075,-1.8984,21.0781,-43.1929,
7.0670,0.0109,-0.0532,1.0242,-0.0063,0.0352,-0.0260,0.0206,0.0023,-0.0106,-1.8984,21.0781,-43.1929,
7.0680,0.0109,-0.0532,1.0242,-0.0003,-0.0732,-0.0072,0.0206,0.0023,-0.0106,-1.8984,21.0781,-43.1929,
7.0920,0.0109,-0.0532,1.0242,-0.0003,-0.0732,-0.0072,0.0206,0.0023,-0.0106,-1.8867,21.0688,-43.1931,
7.0940,0.0162,-0.0521,1.0337,-0.0003,-0.0732,-0.0072,0.0206,0.0023,-0.0106,-1.8867,21.0688,-43.1931,
7.1130,0.0162,-0.0521,1.0337,-0.0003,-0.0732,-0.0072,-0.0051,0.0075,-0.0054,-1.8867,21.0688,-43.1931,
7.1140,0.0166,-0.0546,1.0253,-0.0003,-0.0732,-0.0072,-0.0051,0.0075,-0.0054,-1.8867,21.0688,-43.1931,
7.1230,0.0110,-0.0597,1.0247,-0.0003,-0.0732,-0.0072,-0.0051,0.0075,-0.0054,-1.8867,21.0688,-43.1931,
7.1240,0.0110,-0.0597,1.0247,-0.0100,-0.0155,0.0078,-0.0051,0.0075,-0.0054,-1.8867,21.0688,-43.1931,
7.1580,0.0055,-0.0631,1.0196,-0.0100,-0.0155,0.0078,-0.0051,0.0075,-0.0054,-1.8867,21.0688,-43.1931,
7.1600,0.0055,-0.0631,1.0196,-0.0100,-0.0155,0.0078,0.0093,0.0090,-0.0017,-1.8867,21.0688,-43.1931,
7.1610,0.0055,-0.0631,1.0196,-0.0100,-0.0155,0.0078,0.0093,0.0090,-0.0017,-1.8005,21.0706,-43.2542,
7.1800,0.0083,-0.0620,1.0232,-0.0100,-0.0155,0.0078,0.0093,0.0090,-0.0017,-1.8005,21.0706,-43.2542,
7.2010,0.0083,-0.0620,1.0232,-0.0100,-0.0155,0.0078,0.0001,0.0001,-0.0011,-1.8005,21.0706,-43.2542,
7.2020,0.0093,-0.0599,1.0272,-0.0100,-0.0155,0.0078,0.0001,0.0001,-0.0011,-1.8005,21.0706,-43.2542,
7.2030,0.0106,-0.0581,1.0297,-0.0100,-0.0155,0.0078,0.0001,0.0001,-0.0011,-1.8005,21.0706,-43.2542,
7.2030,0.0106,-0.0581,1.0297,0.0154,-0.0123,0.0268,0.0001,0.0001,-0.0011,-1.8005,21.0706,-43.2542,
7.2250,0.0106,-0.0581,1.0297,0.0154,-0.0123,0.0268,0.0136,-0.0048,-0.0017,-1.8005,21.0706,-43.2542,
7.2270,0.0106,-0.0581,1.0297,0.0154,-0.0123,0.0268,0.0136,-0.0048,-0.0017,-1.7521,21.0626,-43.2659,
7.2280,0.0111,-0.0588,1.0249,0.0154,-0.0123,0.0268,0.0136,-0.0048,-0.0017,-1.7521,21.0626,-43.2659,
7.2460,0.0096,-0.0566,1.0210,0.0154,-0.0123,0.0268,0.0136,-0.0048,-0.0017,-1.7521,21.0626,-43.2659,
7.2590,0.0096,-0.0566,1.0210,-0.0304,-0.0495,0.0117,0.0136,-0.0048,-0.0017,-1.7521,21.0626,-43.2659,
7.2610,0.0096,-0.0566,1.0210,-0.0304,-0.0495,0.0117,0.0142,-0.0069,-0.0011,-1.7521,21.0626,-43.2659,
7.2620,0.0084,-0.0565,1.0242,-0.0304,-0.0495,0.0117,0.0142,-0.0069,-0.0011,-1.7521,21.0626,-43.2659,
7.2910,0.0084,-0.0565,1.0242,-0.0304,-0.0495,0.0117,0.0142,-0.0069,-0.0011,-1.7021,21.0840,-43.2756,
7.2930,0.0136,-0.0592,1.0004,-0.0304,-0.0495,0.0117,0.0142,-0.0069,-0.0011,-1.7021,21.0840,-43.2756,
7.3120,0.0128,-0.0631,1.0611,-0.0304,-0.0495,0.0117,0.0142,-0.0069,-0.0011,-1.7021,21.0840,-43.2756,
7.3140,0.0128,-0.0631,1.0611,-0.0304,-0.0495,0.0117,-0.0139,0.0044,-0.0017,-1.7021,21.0840,-43.2756,
7.3370,0.0128,-0.0631,1.0611,-0.0304,-0.0495,0.0117,0.0197,-0.0045,-0.0024,-1.7021,21.0840,-43.2756,
7.3380,0.0128,-0.0631,1.0611,-0.0161,-0.0229,-0.0822,0.0197,-0.0045,-0.0024,-1.7021,21.0840,-43.2756,
7.3390,0.0094,-0.0570,0.9995,-0.0161,-0.0229,-0.0822,0.0197,-0.0045,-0.0024,-1.7021,21.0840,-43.2756,
7.3400,0.0083,-0.0546,1.0319,-0.0161,-0.0229,-0.0822,0.0197,-0.0045,-0.0024,-1.7021,21.0840,-43.2756,
7.3590,0.0136,-0.0503,1.0271,-0.0161,-0.0229,-0.0822,0.0197,-0.0045,-0.0024,-1.7021,21.0840,-43.2756,
7.3610,0.0136,-0.0503,1.0271,-0.0161,-0.0229,-0.0822,0.0197,-0.0045,-0.0024,-1.7274,21.0629,-43.2907,
7.3800,0.0112,-0.0532,1.0247,-0.0161,-0.0229,-0.0822,0.0197,-0.0045,-0.0024,-1.7274,21.0629,-43.2907,
7.3810,0.0112,-0.0532,1.0247,-0.0161,-0.0229,-0.0822,0.0114,-0.0008,-0.0024,-1.7274,21.0629,-43.2907,
7.3960,0.0112,-0.0532,1.0247,-0.0086,-0.0374,0.0724,0.0114,-0.0008,-0.0024,-1.7274,21.0629,-43.2907,
7.3980,0.0074,-0.0586,1.0321,-0.0086,-0.0374,0.0724,0.0114,-0.0008,-0.0024,-1.7274,21.0629,-43.2907,
7.4250,0.0079,-0.0591,1.0153,-0.0086,-0.0374,0.0724,0.0114,-0.0008,-0.0024,-1.7274,21.0629,-43.2907,
7.4280,0.0079,-0.0591,1.0153,-0.0086,-0.0374,0.0724,0.0114,-0.0008,-0.0024,-1.6546,21.0559,-43.3014,
7.4290,0.0079,-0.0591,1.0153,-0.0086,-0.0374,0.0724,0.0172,-0.0072,-0.0030,-1.6546,21.0559,-43.3014,
7.4460,0.0095,-0.0585,1.0178,-0.0086,-0.0374,0.0724,0.0172,-0.0072,-0.0030,-1.6546,21.0559,-43.3014,
7.4740,0.0095,-0.0585,1.0178,-0.0086,-0.0374,0.0724,0.0001,0.0001,-0.0048,-1.6546,21.0559,-43.3014,
7.4750,0.0112,-0.0610,1.0275,-0.0086,-0.0374,0.0724,0.0001,0.0001,-0.0048,-1.6546,21.0559,-43.3014,
7.4760,0.0109,-0.0603,1.0227,-0.0086,-0.0374,0.0724,0.0001,0.0001,-0.0048,-1.6546,21.0559,-43.3014,
7.4760,0.0109,-0.0603,1.0227,-0.0158,-0.0057,0.0183,0.0001,0.0001,-0.0048,-1.6546,21.0559,-43.3014,
7.4920,0.0109,-0.0603,1.0227,-0.0158,-0.0057,0.0183,0.0001,0.0001,-0.0048,-1.5824,21.0616,-43.2214,
7.5130,0.0094,-0.0590,1.0195,-0.0158,-0.0057,0.0183,0.0001,0.0001,-0.0048,-1.5824,21.0616,-43.2214,
7.5150,0.0093,-0.0595,1.0283,-0.0158,-0.0057,0.0183,0.0001,0.0001,-0.0048,-1.5824,21.0616,-43.2214,
7.5150,0.0093,-0.0595,1.0283,-0.0158,-0.0057,0.0183,0.0108,-0.0042,-0.0045,-1.5824,21.0616,-43.2214,
7.5340,0.0093,-0.0595,1.0283,-0.0156,-0.0520,-0.0278,0.0108,-0.0042,-0.0045,-1.5824,21.0616,-43.2214,
7.5350,0.0093,-0.0595,1.0283,-0.0156,-0.0520,-0.0278,0.0059,-0.0045,-0.0011,-1.5824,21.0616,-43.2214,
7.5360,0.0110,-0.0581,1.0291,-0.0156,-0.0520,-0.0278,0.0059,-0.0045,-0.0011,-1.5824,21.0616,-43.2214,
7.5580,0.0110,-0.0581,1.0291,-0.0156,-0.0520,-0.0278,0.0059,-0.0045,-0.0011,-1.5580,21.0516,-43.2597,
7.5600,0.0120,-0.0570,1.0257,-0.0156,-0.0520,-0.0278,0.0059,-0.0045,-0.0011,-1.5580,21.0516,-43.2597,
7.5790,0.0121,-0.0548,1.0234,-0.0156,-0.0520,-0.0278,0.0059,-0.0045,-0.0011,-1.5580,21.0516,-43.2597,
7.5800,0.0121,-0.0548,1.0234,-0.0156,-0.0520,-0.0278,0.0139,-0.0060,0.0013,-1.5580,21.0516,-43.2597,
7.6110,0.0145,-0.0549,1.0227,-0.0156,-0.0520,-0.0278,0.0139,-0.0060,0.0013,-1.5580,21.0516,-43.2597,
7.6130,0.0145,-0.0549,1.0227,-0.0156,-0.0520,-0.0278,0.0004,-0.0035,0.0001,-1.5580,21.0516,-43.2597,
7.6130,0.0125,-0.0554,1.0241,-0.0156,-0.0520,-0.0278,0.0004,-0.0035,0.0001,-1.5580,21.0516,-43.2597,
7.6140,0.0125,-0.0554,1.0241,-0.0177,-0.0404,0.0150,0.0004,-0.0035,0.0001,-1.5580,21.0516,-43.2597,
7.6240,0.0125,-0.0554,1.0241,-0.0177,-0.0404,0.0150,0.0004,-0.0035,0.0001,-1.5549,21.0995,-43.2952,
7.6460,0.0111,-0.0571,1.0306,-0.0177,-0.0404,0.0150,0.0004,-0.0035,0.0001,-1.5549,21.0995,-43.2952,
7.6700,0.0111,-0.0571,1.0306,0.0014,-0.0123,-0.0088,0.0004,-0.0035,0.0001,-1.5549,21.0995,-43.2952,
7.6710,0.0095,-0.0565,1.0317,0.0014,-0.0123,-0.0088,0.0004,-0.0035,0.0001,-1.5549,21.0995,-43.2952,
7.6710,0.0117,-0.0536,1.0172,0.0014,-0.0123,-0.0088,0.0004,-0.0035,0.0001,-1.5549,21.0995,-43.2952,
7.6720,0.0117,-0.0536,1.0172,0.0014,-0.0123,-0.0088,0.0075,-0.0081,-0.0014,-1.5549,21.0995,-43.2952,
7.6920,0.0100,-0.0540,1.0119,0.0014,-0.0123,-0.0088,0.0075,-0.0081,-0.0014,-1.5549,21.0995,-43.2952,
7.6930,0.0100,-0.0540,1.0119,0.0014,-0.0123,-0.0088,0.0075,-0.0081,-0.0014,-1.5684,21.0687,-43.3233,
7.6940,0.0100,-0.0540,1.0119,0.0014,-0.0123,-0.0088,0.0059,-0.0081,0.0001,-1.5684,21.0687,-43.3233,
7.7140,0.0128,-0.0590,1.0060,0.0014,-0.0123,-0.0088,0.0059,-0.0081,0.0001,-1.5684,21.0687,-43.3233,
7.7480,0.0128,-0.0590,1.0060,0.0014,-0.0123,-0.0088,-0.0023,0.0343,-0.0014,-1.5684,21.0687,-43.3233,
7.7490,0.0111,-0.0645,1.0624,0.0014,-0.0123,-0.0088,-0.0023,0.0343,-0.0014,-1.5684,21.0687,-43.3233,
7.7490,0.0076,-0.0587,1.0168,0.0014,-0.0123,-0.0088,-0.0023,0.0343,-0.0014,-1.5684,21.0687,-43.3233,
7.7500,0.0076,-0.0587,1.0168,-0.0113,-0.0144,-0.0022,-0.0023,0.0343,-0.0014,-1.5684,21.0687,-43.3233,
7.7580,0.0076,-0.0587,1.0168,-0.0113,-0.0144,-0.0022,-0.0023,0.0343,-0.0014,-1.6178,21.0682,-43.2737,
7.7790,0.0076,-0.0587,1.0168,-0.0113,-0.0144,-0.0022,0.0096,-0.0304,-0.0024,-1.6178,21.0682,-43.2737,
7.7800,0.0068,-0.0571,1.0195,-0.0113,-0.0144,-0.0022,0.0096,-0.0304,-0.0024,-1.6178,21.0682,-43.2737,
7.8060,0.0131,-0.0581,1.0372,-0.0113,-0.0144,-0.0022,0.0096,-0.0304,-0.0024,-1.6178,21.0682,-43.2737,
7.8090,0.0131,-0.0581,1.0372,-0.0113,-0.0144,-0.0022,0.0408,-0.0170,-0.0036,-1.6178,21.0682,-43.2737,
7.8090,0.0134,-0.0530,1.0147,-0.0113,-0.0144,-0.0022,0.0408,-0.0170,-0.0036,-1.6178,21.0682,-43.2737,
7.8100,0.0134,-0.0530,1.0147,-0.0233,-0.0674,0.0171,0.0408,-0.0170,-0.0036,-1.6178,21.0682,-43.2737,
7.8250,0.0134,-0.0530,1.0147,-0.0233,-0.0674,0.0171,0.0408,-0.0170,-0.0036,-1.7299,21.0138,-43.2938,
7.8460,0.0105,-0.0493,1.0273,-0.0233,-0.0674,0.0171,0.0408,-0.0170,-0.0036,-1.7299,21.0138,-43.2938,
7.8470,0.0105,-0.0493,1.0273,-0.0233,-0.0674,0.0171,0.0197,-0.0090,-0.0027,-1.7299,21.0138,-43.2938,
7.8480,0.0154,-0.0460,1.0236,-0.0233,-0.0674,0.0171,0.0197,-0.0090,-0.0027,-1.7299,21.0138,-43.2938,
7.8840,0.0153,-0.0496,1.0299,-0.0233,-0.0674,0.0171,0.0197,-0.0090,-0.0027,-1.7299,21.0138,-43.2938,
7.8850,0.0153,-0.0496,1.0299,-0.0233,-0.0674,0.0171,0.0157,-0.0081,-0.0033,-1.7299,21.0138,-43.2938,
7.8860,0.0153,-0.0496,1.0299,-0.0218,-0.0298,-0.0068,0.0157,-0.0081,-0.0033,-1.7299,21.0138,-43.2938,
7.8870,0.0114,-0.0562,1.0252,-0.0218,-0.0298,-0.0068,0.0157,-0.0081,-0.0033,-1.7299,21.0138,-43.2938,
7.8920,0.0114,-0.0562,1.0252,-0.0218,-0.0298,-0.0068,0.0157,-0.0081,-0.0033,-1.8152,20.9985,-43.3491,
7.9140,0.0085,-0.0613,1.0278,-0.0218,-0.0298,-0.0068,0.0157,-0.0081,-0.0033,-1.8152,20.9985,-43.3491,
7.9440,0.0106,-0.0587,1.0278,-0.0218,-0.0298,-0.0068,0.0157,-0.0081,-0.0033,-1.8152,20.9985,-43.3491,
7.9460,0.0121,-0.0554,1.0236,-0.0218,-0.0298,-0.0068,0.0157,-0.0081,-0.0033,-1.8152,20.9985,-43.3491,
7.9460,0.0121,-0.0554,1.0236,-0.0218,-0.0298,-0.0068,0.0273,-0.0103,-0.0002,-1.8152,20.9985,-43.3491,
7.9470,0.0121,-0.0554,1.0236,-0.0037,0.0010,0.0188,0.0273,-0.0103,-0.0002,-1.8152,20.9985,-43.3491,
7.9580,0.0121,-0.0554,1.0236,-0.0037,0.0010,0.0188,0.0273,-0.0103,-0.0002,-1.9147,20.9770,-43.2769,
7.9790,0.0139,-0.0540,1.0289,-0.0037,0.0010,0.0188,0.0273,-0.0103,-0.0002,-1.9147,20.9770,-43.2769,
7.9810,0.0139,-0.0540,1.0289,-0.0037,0.0010,0.0188,0.0246,-0.0124,-0.0017,-1.9147,20.9770,-43.2769,
8.0210,0.0139,-0.0540,1.0289,-0.0037,0.0010,0.0188,0.0249,-0.0155,-0.0014,-1.9147,20.9770,-43.2769,
8.0230,0.0154,-0.0536,1.0266,-0.0037,0.0010,0.0188,0.0249,-0.0155,-0.0014,-1.9147,20.9770,-43.2769,
8.0230,0.0137,-0.0524,1.0238,-0.0037,0.0010,0.0188,0.0249,-0.0155,-0.0014,-1.9147,20.9770,-43.2769,
8.0240,0.0117,-0.0504,1.0120,-0.0037,0.0010,0.0188,0.0249,-0.0155,-0.0014,-1.9147,20.9770,-43.2769,
8.0250,0.0117,-0.0504,1.0120,-0.0355,-0.0806,0.0118,0.0249,-0.0155,-0.0014,-1.9147,20.9770,-43.2769,
8.0250,0.0117,-0.0504,1.0120,-0.0355,-0.0806,0.0118,0.0249,-0.0155,-0.0014,-1.9756,20.9628,-43.3313,
8.0460,0.0165,-0.0531,1.0190,-0.0355,-0.0806,0.0118,0.0249,-0.0155,-0.0014,-1.9756,20.9628,-43.3313,
8.0480,0.0165,-0.0531,1.0190,-0.0355,-0.0806,0.0118,-0.0017,-0.0048,0.0010,-1.9756,20.9628,-43.3313,
8.0780,0.0165,-0.0531,1.0190,-0.0073,-0.0298,-0.0241,-0.0017,-0.0048,0.0010,-1.9756,20.9628,-43.3313,
8.0800,0.0149,-0.0548,1.0423,-0.0073,-0.0298,-0.0241,-0.0017,-0.0048,0.0010,-1.9756,20.9628,-43.3313,
8.0800,0.0139,-0.0489,1.0106,-0.0073,-0.0298,-0.0241,-0.0017,-0.0048,0.0010,-1.9756,20.9628,-43.3313,
8.0810,0.0139,-0.0489,1.0106,-0.0073,-0.0298,-0.0241,0.0285,-0.0048,-0.0011,-1.9756,20.9628,-43.3313,
8.0910,0.0139,-0.0489,1.0106,-0.0073,-0.0298,-0.0241,0.0285,-0.0048,-0.0011,-2.0269,20.9116,-43.3363,
8.1130,0.0116,-0.0477,1.0357,-0.0073,-0.0298,-0.0241,0.0285,-0.0048,-0.0011,-2.0269,20.9116,-43.3363,
8.1590,0.0116,-0.0477,1.0357,-0.0073,-0.0298,-0.0241,0.0212,-0.0042,0.0007,-2.0269,20.9116,-43.3363,
8.1600,0.0175,-0.0439,1.0261,-0.0073,-0.0298,-0.0241,0.0212,-0.0042,0.0007,-2.0269,20.9116,-43.3363,
8.1610,0.0171,-0.0472,1.0279,-0.0073,-0.0298,-0.0241,0.0212,-0.0042,0.0007,-2.0269,20.9116,-43.3363,
8.1620,0.0127,-0.0524,1.0316,-0.0073,-0.0298,-0.0241,0.0212,-0.0042,0.0007,-2.0269,20.9116,-43.3363,
8.1620,0.0127,-0.0524,1.0316,-0.0073,-0.0298,-0.0241,0.0133,-0.0057,-0.0011,-2.0269,20.9116,-43.3363,
8.1630,0.0127,-0.0524,1.0316,-0.0039,-0.0312,0.0121,0.0133,-0.0057,-0.0011,-2.0269,20.9116,-43.3363,
8.1640,0.0127,-0.0524,1.0316,-0.0039,-0.0312,0.0121,0.0133,-0.0057,-0.0011,-2.0664,20.8506,-43.3543,
8.1790,0.0123,-0.0519,1.0140,-0.0039,-0.0312,0.0121,0.0133,-0.0057,-0.0011,-2.0664,20.8506,-43.3543,
8.2150,0.0116,-0.0521,1.0241,-0.0039,-0.0312,0.0121,0.0133,-0.0057,-0.0011,-2.0664,20.8506,-43.3543,
8.2160,0.0116,-0.0521,1.0241,-0.0039,-0.0312,0.0121,0.0130,-0.0081,-0.0014,-2.0664,20.8506,-43.3543,
8.2160,0.0136,-0.0521,1.0212,-0.0039,-0.0312,0.0121,0.0130,-0.0081,-0.0014,-2.0664,20.8506,-43.3543,
8.2160,0.0136,-0.0521,1.0212,0.0019,-0.0028,0.0332,0.0130,-0.0081,-0.0014,-2.0664,20.8506,-43.3543,
8.2240,0.0136,-0.0521,1.0212,0.0019,-0.0028,0.0332,0.0130,-0.0081,-0.0014,-2.1167,20.8190,-43.3580,
8.2460,0.0131,-0.0520,1.0280,0.0019,-0.0028,0.0332,0.0130,-0.0081,-0.0014,-2.1167,20.8190,-43.3580,
8.2470,0.0131,-0.0520,1.0280,0.0019,-0.0028,0.0332,0.0157,0.0026,-0.0036,-2.1167,20.8190,-43.3580,
8.2940,0.0137,-0.0507,1.0234,0.0019,-0.0028,0.0332,0.0157,0.0026,-0.0036,-2.1167,20.8190,-43.3580,
8.2970,0.0149,-0.0509,1.0278,0.0019,-0.0028,0.0332,0.0157,0.0026,-0.0036,-2.1167,20.8190,-43.3580,
8.2980,0.0149,-0.0509,1.0278,0.0019,-0.0028,0.0332,0.0163,0.0020,-0.0027,-2.1167,20.8190,-43.3580,
8.2980,0.0149,-0.0509,1.0278,0.0019,-0.0028,0.0332,0.0163,0.0020,-0.0027,-2.1191,20.7695,-43.3740,
8.3000,0.0122,-0.0507,1.0260,0.0019,-0.0028,0.0332,0.0163,0.0020,-0.0027,-2.1191,20.7695,-43.3740,
8.3000,0.0122,-0.0507,1.0260,-0.0205,-0.0506,-0.0394,0.0163,0.0020,-0.0027,-2.1191,20.7695,-43.3740,
8.3130,0.0125,-0.0499,1.0290,-0.0205,-0.0506,-0.0394,0.0163,0.0020,-0.0027,-2.1191,20.7695,-43.3740,
8.3140,0.0125,-0.0499,1.0290,-0.0205,-0.0506,-0.0394,0.0218,0.0010,-0.0002,-2.1191,20.7695,-43.3740,
8.3520,0.0129,-0.0475,1.0293,-0.0205,-0.0506,-0.0394,0.0218,0.0010,-0.0002,-2.1191,20.7695,-43.3740,
8.3540,0.0129,-0.0475,1.0293,-0.0205,-0.0506,-0.0394,0.0289,-0.0038,-0.0014,-2.1191,20.7695,-43.3740,
8.3550,0.0170,-0.0450,1.0269,-0.0205,-0.0506,-0.0394,0.0289,-0.0038,-0.0014,-2.1191,20.7695,-43.3740,
8.3550,0.0170,-0.0450,1.0269,-0.0125,-0.0515,0.0068,0.0289,-0.0038,-0.0014,-2.1191,20.7695,-43.3740,
8.3580,0.0170,-0.0450,1.0269,-0.0125,-0.0515,0.0068,0.0289,-0.0038,-0.0014,-2.0985,20.6912,-43.4039,
8.3810,0.0170,-0.0442,1.0230,-0.0125,-0.0515,0.0068,0.0289,-0.0038,-0.0014,-2.0985,20.6912,-43.4039,
8.4260,0.0136,-0.0448,1.0268,-0.0125,-0.0515,0.0068,0.0289,-0.0038,-0.0014,-2.0985,20.6912,-43.4039,
8.4270,0.0136,-0.0448,1.0268,-0.0125,-0.0515,0.0068,0.0359,0.0013,-0.0005,-2.0985,20.6912,-43.4039,
8.4280,0.0132,-0.0454,1.0196,-0.0125,-0.0515,0.0068,0.0359,0.0013,-0.0005,-2.0985,20.6912,-43.4039,
8.4290,0.0132,-0.0454,1.0196,-0.0125,-0.0515,0.0068,0.0359,0.0013,-0.0005,-2.0652,20.6343,-43.3934,
8.4300,0.0144,-0.0463,1.0305,-0.0125,-0.0515,0.0068,0.0359,0.0013,-0.0005,-2.0652,20.6343,-43.3934,
8.4300,0.0144,-0.0463,1.0305,-0.0125,-0.0515,0.0068,0.0313,0.0010,-0.0014,-2.0652,20.6343,-43.3934,
8.4310,0.0144,-0.0463,1.0305,-0.0001,-0.0331,0.0207,0.0313,0.0010,-0.0014,-2.0652,20.6343,-43.3934,
8.4910,0.0144,-0.0463,1.0305,-0.0001,-0.0331,0.0207,0.0307,-0.0057,-0.0027,-2.0652,20.6343,-43.3934,
8.4930,0.0138,-0.0442,1.0284,-0.0001,-0.0331,0.0207,0.0307,-0.0057,-0.0027,-2.0652,20.6343,-43.3934,
8.4940,0.0126,-0.0409,1.0102,-0.0001,-0.0331,0.0207,0.0307,-0.0057,-0.0027,-2.0652,20.6343,-43.3934,
8.4940,0.0129,-0.0430,1.0090,-0.0001,-0.0331,0.0207,0.0307,-0.0057,-0.0027,-2.0652,20.6343,-43.3934,
8.4950,0.0129,-0.0430,1.0090,0.0008,-0.0236,-0.0043,0.0307,-0.0057,-0.0027,-2.0652,20.6343,-43.3934,
8.4960,0.0129,-0.0430,1.0090,0.0008,-0.0236,-0.0043,0.0307,-0.0057,-0.0027,-2.0190,20.5544,-43.5124,
8.5140,0.0159,-0.0499,1.0490,0.0008,-0.0236,-0.0043,0.0307,-0.0057,-0.0027,-2.0190,20.5544,-43.5124,
8.5150,0.0159,-0.0499,1.0490,0.0008,-0.0236,-0.0043,0.0008,0.0307,-0.0027,-2.0190,20.5544,-43.5124,
8.5590,0.0159,-0.0499,1.0490,0.0008,-0.0236,-0.0043,0.0008,0.0307,-0.0027,-2.0214,20.5049,-43.5284,
8.5620,0.0159,-0.0499,1.0490,0.0008,-0.0236,-0.0043,0.0331,-0.0164,-0.0042,-2.0214,20.5049,-43.5284,
8.5630,0.0114,-0.0509,1.0328,0.0008,-0.0236,-0.0043,0.0331,-0.0164,-0.0042,-2.0214,20.5049,-43.5284,
8.5630,0.0090,-0.0450,1.0180,0.0008,-0.0236,-0.0043,0.0331,-0.0164,-0.0042,-2.0214,20.5049,-43.5284,
8.5690,0.0090,-0.0450,1.0180,-0.0127,-0.0181,-0.0863,0.0331,-0.0164,-0.0042,-2.0214,20.5049,-43.5284,
8.5700,0.0136,-0.0469,1.0216,-0.0127,-0.0181,-0.0863,0.0331,-0.0164,-0.0042,-2.0214,20.5049,-43.5284,
8.6280,0.0136,-0.0469,1.0216,-0.0127,-0.0181,-0.0863,0.0203,-0.0219,0.0019,-2.0214,20.5049,-43.5284,
8.6310,0.0136,-0.0469,1.0216,-0.0127,-0.0181,-0.0863,0.0203,-0.0219,0.0019,-1.9871,20.4456,-43.5951,
8.6320,0.0161,-0.0478,1.0377,-0.0127,-0.0181,-0.0863,0.0203,-0.0219,0.0019,-1.9871,20.4456,-43.5951,
8.6330,0.0148,-0.0419,1.0191,-0.0127,-0.0181,-0.0863,0.0203,-0.0219,0.0019,-1.9871,20.4456,-43.5951,
8.6340,0.0148,-0.0419,1.0191,-0.0127,-0.0181,-0.0863,0.0457,-0.0112,-0.0039,-1.9871,20.4456,-43.5951,
8.6340,0.0142,-0.0344,1.0241,-0.0127,-0.0181,-0.0863,0.0457,-0.0112,-0.0039,-1.9871,20.4456,-43.5951,
8.6350,0.0142,-0.0344,1.0241,-0.0302,-0.0812,0.0686,0.0457,-0.0112,-0.0039,-1.9871,20.4456,-43.5951,
8.6450,0.0178,-0.0312,1.0245,-0.0302,-0.0812,0.0686,0.0457,-0.0112,-0.0039,-1.9871,20.4456,-43.5951,
8.6920,0.0178,-0.0312,1.0245,-0.0302,-0.0812,0.0686,0.0151,-0.0032,-0.0017,-1.9871,20.4456,-43.5951,
8.6940,0.0178,-0.0312,1.0245,-0.0302,-0.0812,0.0686,0.0151,-0.0032,-0.0017,-1.9912,20.3670,-43.6001,
8.6950,0.0175,-0.0349,1.0278,-0.0302,-0.0812,0.0686,0.0151,-0.0032,-0.0017,-1.9912,20.3670,-43.6001,
8.6960,0.0116,-0.0432,1.0273,-0.0302,-0.0812,0.0686,0.0151,-0.0032,-0.0017,-1.9912,20.3670,-43.6001,
8.7040,0.0116,-0.0432,1.0273,-0.0007,-0.0117,0.0074,0.0151,-0.0032,-0.0017,-1.9912,20.3670,-43.6001,
8.7060,0.0116,-0.0432,1.0273,-0.0007,-0.0117,0.0074,0.0215,-0.0026,-0.0011,-1.9912,20.3670,-43.6001,
8.7070,0.0111,-0.0460,1.0283,-0.0007,-0.0117,0.0074,0.0215,-0.0026,-0.0011,-1.9912,20.3670,-43.6001,
8.7600,0.0111,-0.0460,1.0283,-0.0007,-0.0117,0.0074,0.0215,-0.0026,-0.0011,-1.9949,20.2987,-43.5917,
8.7630,0.0111,-0.0460,1.0283,-0.0007,-0.0117,0.0074,0.0289,-0.0100,-0.0011,-1.9949,20.2987,-43.5917,
8.7640,0.0134,-0.0442,1.0264,-0.0007,-0.0117,0.0074,0.0289,-0.0100,-0.0011,-1.9949,20.2987,-43.5917,
8.7650,0.0160,-0.0406,1.0189,-0.0007,-0.0117,0.0074,0.0289,-0.0100,-0.0011,-1.9949,20.2987,-43.5917,
8.7650,0.0153,-0.0400,1.0277,-0.0007,-0.0117,0.0074,0.0289,-0.0100,-0.0011,-1.9949,20.2987,-43.5917,
8.7660,0.0153,-0.0400,1.0277,-0.0146,-0.0230,0.0156,0.0289,-0.0100,-0.0011,-1.9949,20.2987,-43.5917,
8.8270,0.0153,-0.0400,1.0277,-0.0146,-0.0230,0.0156,0.0087,-0.0066,-0.0024,-1.9949,20.2987,-43.5917,
8.8280,0.0153,-0.0400,1.0277,-0.0146,-0.0230,0.0156,0.0087,-0.0066,-0.0024,-1.9970,20.2484,-43.6334,
8.8300,0.0153,-0.0400,1.0277,-0.0146,-0.0230,0.0156,0.0023,-0.0081,-0.0014,-1.9970,20.2484,-43.6334,
8.8310,0.0132,-0.0404,1.0260,-0.0146,-0.0230,0.0156,0.0023,-0.0081,-0.0014,-1.9970,20.2484,-43.6334,
8.8310,0.0140,-0.0381,1.0257,-0.0146,-0.0230,0.0156,0.0023,-0.0081,-0.0014,-1.9970,20.2484,-43.6334,
8.8320,0.0151,-0.0375,0.9921,-0.0146,-0.0230,0.0156,0.0023,-0.0081,-0.0014,-1.9970,20.2484,-43.6334,
8.8420,0.0151,-0.0375,0.9921,-0.0124,-0.0288,-0.0078,0.0023,-0.0081,-0.0014,-1.9970,20.2484,-43.6334,
8.8430,0.0189,-0.0411,1.0528,-0.0124,-0.0288,-0.0078,0.0023,-0.0081,-0.0014,-1.9970,20.2484,-43.6334,
8.8930,0.0189,-0.0411,1.0528,-0.0124,-0.0288,-0.0078,-0.0160,0.0010,-0.0008,-1.9970,20.2484,-43.6334,
8.8940,0.0189,-0.0411,1.0528,-0.0124,-0.0288,-0.0078,-0.0160,0.0010,-0.0008,-1.9735,20.2295,-43.6466,
8.8950,0.0147,-0.0398,1.0130,-0.0124,-0.0288,-0.0078,-0.0160,0.0010,-0.0008,-1.9735,20.2295,-43.6466,
8.8960,0.0129,-0.0370,1.0322,-0.0124,-0.0288,-0.0078,-0.0160,0.0010,-0.0008,-1.9735,20.2295,-43.6466,
8.9000,0.0129,-0.0370,1.0322,-0.0124,-0.0288,-0.0078,-0.0179,0.0017,0.0025,-1.9735,20.2295,-43.6466,
8.9010,0.0129,-0.0370,1.0322,-0.0007,0.0031,-0.0200,-0.0179,0.0017,0.0025,-1.9735,20.2295,-43.6466,
8.9020,0.0161,-0.0375,1.0261,-0.0007,0.0031,-0.0200,-0.0179,0.0017,0.0025,-1.9735,20.2295,-43.6466,
8.9620,0.0161,-0.0375,1.0261,-0.0007,0.0031,-0.0200,-0.0286,-0.0005,0.0031,-1.9735,20.2295,-43.6466,
8.9650,0.0189,-0.0343,1.0271,-0.0007,0.0031,-0.0200,-0.0286,-0.0005,0.0031,-1.9735,20.2295,-43.6466,
8.9660,0.0182,-0.0406,1.0356,-0.0007,0.0031,-0.0200,-0.0286,-0.0005,0.0031,-1.9735,20.2295,-43.6466,
8.9670,0.0117,-0.0465,1.0277,-0.0007,0.0031,-0.0200,-0.0286,-0.0005,0.0031,-1.9735,20.2295,-43.6466,
8.9680,0.0117,-0.0465,1.0277,-0.0007,0.0031,-0.0200,-0.0286,-0.0005,0.0031,-1.9723,20.2487,-43.6582,
8.9790,0.0125,-0.0454,1.0199,-0.0007,0.0031,-0.0200,-0.0286,-0.0005,0.0031,-1.9723,20.2487,-43.6582,
8.9810,0.0125,-0.0454,1.0199,-0.0007,0.0031,-0.0200,-0.0105,-0.0103,-0.0002,-1.9723,20.2487,-43.6582,
8.9820,0.0125,-0.0454,1.0199,-0.0098,0.0275,-0.0152,-0.0105,-0.0103,-0.0002,-1.9723,20.2487,-43.6582,
9.0240,0.0151,-0.0442,1.0183,-0.0098,0.0275,-0.0152,-0.0105,-0.0103,-0.0002,-1.9723,20.2487,-43.6582,
9.0260,0.0151,-0.0442,1.0183,-0.0098,0.0275,-0.0152,-0.0139,0.0029,-0.0017,-1.9723,20.2487,-43.6582,
9.0260,0.0145,-0.0447,1.0214,-0.0098,0.0275,-0.0152,-0.0139,0.0029,-0.0017,-1.9723,20.2487,-43.6582,
9.0270,0.0145,-0.0447,1.0214,-0.0098,0.0275,-0.0152,-0.0139,0.0029,-0.0017,-1.9457,20.2997,-43.6284,
9.0360,0.0131,-0.0458,1.0235,-0.0098,0.0275,-0.0152,-0.0139,0.0029,-0.0017,-1.9457,20.2997,-43.6284,
9.0370,0.0131,-0.0458,1.0235,-0.0087,-0.0139,0.0254,-0.0139,0.0029,-0.0017,-1.9457,20.2997,-43.6284,
9.0940,0.0131,-0.0458,1.0235,-0.0087,-0.0139,0.0254,-0.0139,0.0029,-0.0017,-1.9575,20.3093,-43.6154,
9.0970,0.0131,-0.0458,1.0235,-0.0087,-0.0139,0.0254,-0.0121,0.0068,0.0001,-1.9575,20.3093,-43.6154,
9.0970,0.0147,-0.0459,1.0256,-0.0087,-0.0139,0.0254,-0.0121,0.0068,0.0001,-1.9575,20.3093,-43.6154,
9.0980,0.0144,-0.0467,1.0307,-0.0087,-0.0139,0.0254,-0.0121,0.0068,0.0001,-1.9575,20.3093,-43.6154,
9.1140,0.0133,-0.0444,1.0232,-0.0087,-0.0139,0.0254,-0.0121,0.0068,0.0001,-1.9575,20.3093,-43.6154,
9.1150,0.0133,-0.0444,1.0232,-0.0087,-0.0139,0.0254,-0.0072,0.0062,-0.0002,-1.9575,20.3093,-43.6154,
9.1160,0.0139,-0.0447,1.0262,-0.0087,-0.0139,0.0254,-0.0072,0.0062,-0.0002,-1.9575,20.3093,-43.6154,
9.1160,0.0139,-0.0447,1.0262,-0.0086,-0.0264,-0.0384,-0.0072,0.0062,-0.0002,-1.9575,20.3093,-43.6154,
9.1590,0.0142,-0.0432,1.0219,-0.0086,-0.0264,-0.0384,-0.0072,0.0062,-0.0002,-1.9575,20.3093,-43.6154,
9.1600,0.0142,-0.0432,1.0219,-0.0086,-0.0264,-0.0384,-0.0072,0.0062,-0.0002,-1.9451,20.3315,-43.5494,
9.1610,0.0144,-0.0443,1.0235,-0.0086,-0.0264,-0.0384,-0.0072,0.0062,-0.0002,-1.9451,20.3315,-43.5494,
9.1620,0.0144,-0.0443,1.0235,-0.0086,-0.0264,-0.0384,-0.0081,0.0050,-0.0011,-1.9451,20.3315,-43.5494,
9.1730,0.0148,-0.0455,1.0252,-0.0086,-0.0264,-0.0384,-0.0081,0.0050,-0.0011,-1.9451,20.3315,-43.5494,
9.1740,0.0148,-0.0455,1.0252,-0.0081,-0.0216,0.0184,-0.0081,0.0050,-0.0011,-1.9451,20.3315,-43.5494,
9.1750,0.0148,-0.0455,1.0252,-0.0081,-0.0216,0.0184,-0.0087,0.0038,0.0001,-1.9451,20.3315,-43.5494,
9.2260,0.0148,-0.0455,1.0252,-0.0081,-0.0216,0.0184,-0.0032,0.0041,-0.0008,-1.9451,20.3315,-43.5494,
9.2280,0.0148,-0.0455,1.0252,-0.0081,-0.0216,0.0184,-0.0032,0.0041,-0.0008,-1.9186,20.3829,-43.5067,
9.2290,0.0151,-0.0465,1.0232,-0.0081,-0.0216,0.0184,-0.0032,0.0041,-0.0008,-1.9186,20.3829,-43.5067,
9.2290,0.0138,-0.0459,1.0238,-0.0081,-0.0216,0.0184,-0.0032,0.0041,-0.0008,-1.9186,20.3829,-43.5067,
9.2460,0.0138,-0.0470,1.0205,-0.0081,-0.0216,0.0184,-0.0032,0.0041,-0.0008,-1.9186,20.3829,-43.5067,
9.2490,0.0138,-0.0470,1.0205,-0.0081,-0.0216,0.0184,-0.0112,0.0059,0.0001,-1.9186,20.3829,-43.5067,
9.2500,0.0142,-0.0480,1.0273,-0.0081,-0.0216,0.0184,-0.0112,0.0059,0.0001,-1.9186,20.3829,-43.5067,
9.2510,0.0142,-0.0480,1.0273,0.0013,-0.0079,-0.0136,-0.0112,0.0059,0.0001,-1.9186,20.3829,-43.5067,
9.2910,0.0142,-0.0480,1.0273,0.0013,-0.0079,-0.0136,0.0056,-0.0023,-0.0033,-1.9186,20.3829,-43.5067,
9.2930,0.0142,-0.0480,1.0273,0.0013,-0.0079,-0.0136,0.0056,-0.0023,-0.0033,-1.9143,20.4831,-43.4361,
9.2940,0.0127,-0.0481,1.0363,0.0013,-0.0079,-0.0136,0.0056,-0.0023,-0.0033,-1.9143,20.4831,-43.4361,
9.2940,0.0126,-0.0452,1.0191,0.0013,-0.0079,-0.0136,0.0056,-0.0023,-0.0033,-1.9143,20.4831,-43.4361,
9.3090,0.0126,-0.0452,1.0191,-0.0015,-0.0239,-0.0129,0.0056,-0.0023,-0.0033,-1.9143,20.4831,-43.4361,
9.3100,0.0127,-0.0452,1.0135,-0.0015,-0.0239,-0.0129,0.0056,-0.0023,-0.0033,-1.9143,20.4831,-43.4361,
9.3580,0.0127,-0.0452,1.0135,-0.0015,-0.0239,-0.0129,-0.0240,0.0209,0.0007,-1.9143,20.4831,-43.4361,
9.3590,0.0127,-0.0452,1.0135,-0.0015,-0.0239,-0.0129,-0.0240,0.0209,0.0007,-1.8886,20.5140,-43.4204,
9.3610,0.0128,-0.0491,0.9979,-0.0015,-0.0239,-0.0129,-0.0240,0.0209,0.0007,-1.8886,20.5140,-43.4204,
9.3620,0.0156,-0.0549,1.0694,-0.0015,-0.0239,-0.0129,-0.0240,0.0209,0.0007,-1.8886,20.5140,-43.4204,
9.3800,0.0104,-0.0522,1.0148,-0.0015,-0.0239,-0.0129,-0.0240,0.0209,0.0007,-1.8886,20.5140,-43.4204,
9.3810,0.0104,-0.0522,1.0148,-0.0015,-0.0239,-0.0129,-0.0005,0.0090,-0.0017,-1.8886,20.5140,-43.4204,
9.3860,0.0104,-0.0522,1.0148,-0.0109,-0.0116,-0.0435,-0.0005,0.0090,-0.0017,-1.8886,20.5140,-43.4204,
9.3870,0.0100,-0.0511,1.0200,-0.0109,-0.0116,-0.0435,-0.0005,0.0090,-0.0017,-1.8886,20.5140,-43.4204,
9.4260,0.0117,-0.0513,1.0370,-0.0109,-0.0116,-0.0435,-0.0005,0.0090,-0.0017,-1.8886,20.5140,-43.4204,
9.4290,0.0117,-0.0513,1.0370,-0.0109,-0.0116,-0.0435,-0.0017,-0.0209,0.0010,-1.8886,20.5140,-43.4204,
9.4300,0.0117,-0.0513,1.0370,-0.0109,-0.0116,-0.0435,-0.0017,-0.0209,0.0010,-1.8743,20.5539,-43.4174,
9.4460,0.0117,-0.0513,1.0370,-0.0175,-0.0733,0.0405,-0.0017,-0.0209,0.0010,-1.8743,20.5539,-43.4174,
9.4470,0.0161,-0.0439,1.0169,-0.0175,-0.0733,0.0405,-0.0017,-0.0209,0.0010,-1.8743,20.5539,-43.4174,
9.4490,0.0161,-0.0439,1.0169,-0.0175,-0.0733,0.0405,0.0258,-0.0057,0.0007,-1.8743,20.5539,-43.4174,
9.4490,0.0138,-0.0394,1.0218,-0.0175,-0.0733,0.0405,0.0258,-0.0057,0.0007,-1.8743,20.5539,-43.4174,
9.4920,0.0138,-0.0394,1.0218,-0.0175,-0.0733,0.0405,-0.0081,0.0044,0.0013,-1.8743,20.5539,-43.4174,
9.4940,0.0151,-0.0393,1.0218,-0.0175,-0.0733,0.0405,-0.0081,0.0044,0.0013,-1.8743,20.5539,-43.4174,
9.4940,0.0151,-0.0393,1.0218,-0.0175,-0.0733,0.0405,-0.0081,0.0044,0.0013,-1.8487,20.5852,-43.3889,
9.4950,0.0159,-0.0425,1.0245,-0.0175,-0.0733,0.0405,-0.0081,0.0044,0.0013,-1.8487,20.5852,-43.3889,
9.5130,0.0116,-0.0503,1.0300,-0.0175,-0.0733,0.0405,-0.0081,0.0044,0.0013,-1.8487,20.5852,-43.3889,
9.5260,0.0068,-0.0548,1.0222,-0.0175,-0.0733,0.0405,-0.0081,0.0044,0.0013,-1.8487,20.5852,-43.3889,
9.5270,0.0068,-0.0548,1.0222,-0.0175,-0.0733,0.0405,-0.0014,0.0065,0.0010,-1.8487,20.5852,-43.3889,
9.5270,0.0068,-0.0548,1.0222,0.0031,0.0114,0.0042,-0.0014,0.0065,0.0010,-1.8487,20.5852,-43.3889,
9.5580,0.0085,-0.0542,1.0257,0.0031,0.0114,0.0042,-0.0014,0.0065,0.0010,-1.8487,20.5852,-43.3889,
9.5590,0.0085,-0.0542,1.0257,0.0031,0.0114,0.0042,-0.0014,0.0065,0.0010,-1.8358,20.6062,-43.3614,
9.5790,0.0085,-0.0542,1.0257,0.0031,0.0114,0.0042,-0.0051,-0.0017,-0.0005,-1.8358,20.6062,-43.3614,
9.5810,0.0098,-0.0516,1.0249,0.0031,0.0114,0.0042,-0.0051,-0.0017,-0.0005,-1.8358,20.6062,-43.3614,
9.5810,0.0098,-0.0516,1.0249,-0.0151,-0.0188,-0.0042,-0.0051,-0.0017,-0.0005,-1.8358,20.6062,-43.3614,
9.5820,0.0123,-0.0529,1.0275,-0.0151,-0.0188,-0.0042,-0.0051,-0.0017,-0.0005,-1.8358,20.6062,-43.3614,
9.6250,0.0137,-0.0531,1.0290,-0.0151,-0.0188,-0.0042,-0.0051,-0.0017,-0.0005,-1.8358,20.6062,-43.3614,
9.6270,0.0137,-0.0531,1.0290,-0.0151,-0.0188,-0.0042,-0.0051,-0.0017,-0.0005,-1.8003,20.5882,-43.3613,
9.6290,0.0143,-0.0509,1.0114,-0.0151,-0.0188,-0.0042,-0.0051,-0.0017,-0.0005,-1.8003,20.5882,-43.3613,
9.6300,0.0143,-0.0509,1.0114,-0.0151,-0.0188,-0.0042,-0.0057,-0.0045,-0.0014,-1.8003,20.5882,-43.3613,
9.6470,0.0143,-0.0509,1.0114,-0.0151,-0.0188,-0.0042,-0.0057,-0.0060,-0.0002,-1.8003,20.5882,-43.3613,
9.6490,0.0111,-0.0486,1.0335,-0.0151,-0.0188,-0.0042,-0.0057,-0.0060,-0.0002,-1.8003,20.5882,-43.3613,
9.6600,0.0156,-0.0500,0.9915,-0.0151,-0.0188,-0.0042,-0.0057,-0.0060,-0.0002,-1.8003,20.5882,-43.3613,
9.6620,0.0156,-0.0500,0.9915,-0.0281,-0.0528,0.0168,-0.0057,-0.0060,-0.0002,-1.8003,20.5882,-43.3613,
9.6920,0.0148,-0.0522,1.0714,-0.0281,-0.0528,0.0168,-0.0057,-0.0060,-0.0002,-1.8003,20.5882,-43.3613,
9.6930,0.0148,-0.0522,1.0714,-0.0281,-0.0528,0.0168,-0.0371,0.0029,-0.0014,-1.8003,20.5882,-43.3613,
9.6930,0.0148,-0.0522,1.0714,-0.0281,-0.0528,0.0168,-0.0371,0.0029,-0.0014,-1.8241,20.6079,-43.3224,
9.7120,0.0133,-0.0486,1.0018,-0.0281,-0.0528,0.0168,-0.0371,0.0029,-0.0014,-1.8241,20.6079,-43.3224,
9.7180,0.0107,-0.0470,1.0301,-0.0281,-0.0528,0.0168,-0.0371,0.0029,-0.0014,-1.8241,20.6079,-43.3224,
9.7190,0.0107,-0.0470,1.0301,-0.0281,-0.0528,0.0168,0.0081,-0.0029,-0.0011,-1.8241,20.6079,-43.3224,
9.7190,0.0107,-0.0470,1.0301,0.0008,-0.0196,-0.0929,0.0081,-0.0029,-0.0011,-1.8241,20.6079,-43.3224,
9.7580,0.0107,-0.0470,1.0301,0.0008,-0.0196,-0.0929,-0.0023,0.0010,0.0007,-1.8241,20.6079,-43.3224,
9.7600,0.0155,-0.0444,1.0328,0.0008,-0.0196,-0.0929,-0.0023,0.0010,0.0007,-1.8241,20.6079,-43.3224,
9.7600,0.0149,-0.0460,1.0200,0.0008,-0.0196,-0.0929,-0.0023,0.0010,0.0007,-1.8241,20.6079,-43.3224,
9.7610,0.0149,-0.0460,1.0200,0.0008,-0.0196,-0.0929,-0.0023,0.0010,0.0007,-1.8095,20.6470,-43.3451,
9.7800,0.0098,-0.0530,1.0339,0.0008,-0.0196,-0.0929,-0.0023,0.0010,0.0007,-1.8095,20.6470,-43.3451,
9.7970,0.0098,-0.0530,1.0339,-0.0046,-0.0041,0.0959,-0.0023,0.0010,0.0007,-1.8095,20.6470,-43.3451,
9.7980,0.0077,-0.0536,1.0172,-0.0046,-0.0041,0.0959,-0.0023,0.0010,0.0007,-1.8095,20.6470,-43.3451,
9.7990,0.0077,-0.0536,1.0172,-0.0046,-0.0041,0.0959,0.0023,-0.0017,0.0007,-1.8095,20.6470,-43.3451,
9.8250,0.0103,-0.0525,1.0210,-0.0046,-0.0041,0.0959,0.0023,-0.0017,0.0007,-1.8095,20.6470,-43.3451,
9.8260,0.0103,-0.0525,1.0210,-0.0046,-0.0041,0.0959,0.0023,-0.0017,0.0007,-1.8219,20.6358,-43.3719,
9.8450,0.0115,-0.0548,1.0216,-0.0046,-0.0041,0.0959,0.0023,-0.0017,0.0007,-1.8219,20.6358,-43.3719,
9.8460,0.0115,-0.0548,1.0216,-0.0046,-0.0041,0.0959,-0.0133,0.0013,-0.0008,-1.8219,20.6358,-43.3719,
9.8550,0.0115,-0.0548,1.0216,-0.0151,-0.0091,-0.0055,-0.0133,0.0013,-0.0008,-1.8219,20.6358,-43.3719,
9.8560,0.0106,-0.0564,1.0247,-0.0151,-0.0091,-0.0055,-0.0133,0.0013,-0.0008,-1.8219,20.6358,-43.3719,
9.8910,0.0106,-0.0579,1.0192,-0.0151,-0.0091,-0.0055,-0.0133,0.0013,-0.0008,-1.8219,20.6358,-43.3719,
9.8920,0.0106,-0.0579,1.0192,-0.0151,-0.0091,-0.0055,-0.0133,0.0013,-0.0008,-1.8808,20.6834,-43.3325,
9.8930,0.0106,-0.0579,1.0192,-0.0151,-0.0091,-0.0055,-0.0026,0.0035,-0.0030,-1.8808,20.6834,-43.3325,
9.9130,0.0115,-0.0575,1.0288,-0.0151,-0.0091,-0.0055,-0.0026,0.0035,-0.0030,-1.8808,20.6834,-43.3325,
9.9140,0.0127,-0.0547,1.0286,-0.0151,-0.0091,-0.0055,-0.0026,0.0035,-0.0030,-1.8808,20.6834,-43.3325,
9.9140,0.0127,-0.0547,1.0286,-0.0151,-0.0091,-0.0055,-0.0038,0.0047,-0.0027,-1.8808,20.6834,-43.3325,
9.9330,0.0092,-0.0529,1.0236,-0.0151,-0.0091,-0.0055,-0.0038,0.0047,-0.0027,-1.8808,20.6834,-43.3325,
9.9340,0.0092,-0.0529,1.0236,-0.0185,-0.0517,-0.0273,-0.0038,0.0047,-0.0027,-1.8808,20.6834,-43.3325,
9.9570,0.0121,-0.0527,1.0261,-0.0185,-0.0517,-0.0273,-0.0038,0.0047,-0.0027,-1.8808,20.6834,-43.3325,
9.9590,0.0121,-0.0527,1.0261,-0.0185,-0.0517,-0.0273,-0.0008,0.0041,-0.0017,-1.8808,20.6834,-43.3325,
9.9590,0.0121,-0.0527,1.0261,-0.0185,-0.0517,-0.0273,-0.0008,0.0041,-0.0017,-1.9167,20.7132,-43.2677,
9.9790,0.0145,-0.0519,1.0262,-0.0185,-0.0517,-0.0273,-0.0008,0.0041,-0.0017,-1.9167,20.7132,-43.2677,
9.9920,0.0145,-0.0519,1.0262,-0.0185,-0.0517,-0.0273,-0.0032,0.0032,-0.0011,-1.9167,20.7132,-43.2677,
9.9930,0.0145,-0.0519,1.0262,-0.0124,-0.0467,0.0132,-0.0032,0.0032,-0.0011,-1.9167,20.7132,-43.2677,
9.9930,0.0128,-0.0515,1.0247,-0.0124,-0.0467,0.0132,-0.0032,0.0032,-0.0011,-1.9167,20.7132,-43.2677,
10.0240,0.0125,-0.0514,1.0183,-0.0124,-0.0467,0.0132,-0.0032,0.0032,-0.0011,-1.9167,20.7132,-43.2677,
10.0250,0.0125,-0.0514,1.0183,-0.0124,-0.0467,0.0132,-0.0032,0.0032,-0.0011,-1.9650,20.7098,-43.3081,
10.0470,0.0116,-0.0538,1.0279,-0.0124,-0.0467,0.0132,-0.0032,0.0032,-0.0011,-1.9650,20.7098,-43.3081,
10.0480,0.0116,-0.0538,1.0279,-0.0124,-0.0467,0.0132,-0.0105,0.0059,-0.0002,-1.9650,20.7098,-43.3081,
10.0690,0.0098,-0.0525,1.0275,-0.0124,-0.0467,0.0132,-0.0105,0.0059,-0.0002,-1.9650,20.7098,-43.3081,
10.0710,0.0098,-0.0525,1.0275,-0.0124,-0.0467,0.0132,-0.0041,-0.0014,-0.0008,-1.9650,20.7098,-43.3081,
10.0710,0.0098,-0.0516,1.0258,-0.0124,-0.0467,0.0132,-0.0041,-0.0014,-0.0008,-1.9650,20.7098,-43.3081,
10.0720,0.0098,-0.0516,1.0258,0.0079,-0.0066,-0.0005,-0.0041,-0.0014,-0.0008,-1.9650,20.7098,-43.3081,
10.0910,0.0092,-0.0527,1.0144,0.0079,-0.0066,-0.0005,-0.0041,-0.0014,-0.0008,-1.9650,20.7098,-43.3081,
10.0920,0.0092,-0.0527,1.0144,0.0079,-0.0066,-0.0005,-0.0041,-0.0014,-0.0008,-2.0121,20.7367,-43.3209,
10.1130,0.0094,-0.0582,0.9982,0.0079,-0.0066,-0.0005,-0.0041,-0.0014,-0.0008,-2.0121,20.7367,-43.3209,
10.1150,0.0094,-0.0582,0.9982,0.0079,-0.0066,-0.0005,-0.0277,0.0212,0.0007,-2.0121,20.7367,-43.3209,
10.1280,0.0094,-0.0582,0.9982,-0.0006,-0.0002,0.0100,-0.0277,0.0212,0.0007,-2.0121,20.7367,-43.3209,
10.1290,0.0144,-0.0637,1.0719,-0.0006,-0.0002,0.0100,-0.0277,0.0212,0.0007,-2.0121,20.7367,-43.3209,
10.1570,0.0144,-0.0637,1.0719,-0.0006,-0.0002,0.0100,0.0011,0.0065,-0.0005,-2.0121,20.7367,-43.3209,
10.1580,0.0092,-0.0624,1.0189,-0.0006,-0.0002,0.0100,0.0011,0.0065,-0.0005,-2.0121,20.7367,-43.3209,
10.1590,0.0092,-0.0624,1.0189,-0.0006,-0.0002,0.0100,0.0011,0.0065,-0.0005,-2.0694,20.8137,-43.2796,
10.1790,0.0071,-0.0577,1.0117,-0.0006,-0.0002,0.0100,0.0011,0.0065,-0.0005,-2.0694,20.8137,-43.2796,
10.2060,0.0071,-0.0577,1.0117,-0.0119,-0.0628,0.0267,0.0011,0.0065,-0.0005,-2.0694,20.8137,-43.2796,
10.2080,0.0088,-0.0598,1.0407,-0.0119,-0.0628,0.0267,0.0011,0.0065,-0.0005,-2.0694,20.8137,-43.2796,
10.2090,0.0111,-0.0531,1.0126,-0.0119,-0.0628,0.0267,0.0011,0.0065,-0.0005,-2.0694,20.8137,-43.2796,
10.2090,0.0111,-0.0531,1.0126,-0.0119,-0.0628,0.0267,-0.0078,-0.0164,-0.0021,-2.0694,20.8137,-43.2796,
10.2240,0.0111,-0.0531,1.0126,-0.0119,-0.0628,0.0267,-0.0078,-0.0164,-0.0021,-2.0907,20.8716,-43.2768,
10.2450,0.0115,-0.0494,1.0201,-0.0119,-0.0628,0.0267,-0.0078,-0.0164,-0.0021,-2.0907,20.8716,-43.2768,
10.2470,0.0140,-0.0491,1.0282,-0.0119,-0.0628,0.0267,-0.0078,-0.0164,-0.0021,-2.0907,20.8716,-43.2768,
10.2470,0.0140,-0.0491,1.0282,-0.0119,-0.0628,0.0267,0.0154,-0.0045,-0.0017,-2.0907,20.8716,-43.2768,
10.2640,0.0140,-0.0491,1.0282,-0.0226,-0.0326,-0.0422,0.0154,-0.0045,-0.0017,-2.0907,20.8716,-43.2768,
10.2650,0.0136,-0.0525,1.0299,-0.0226,-0.0326,-0.0422,0.0154,-0.0045,-0.0017,-2.0907,20.8716,-43.2768,
10.2660,0.0136,-0.0525,1.0299,-0.0226,-0.0326,-0.0422,-0.0188,0.0010,-0.0011,-2.0907,20.8716,-43.2768,
10.2910,0.0081,-0.0588,1.0260,-0.0226,-0.0326,-0.0422,-0.0188,0.0010,-0.0011,-2.0907,20.8716,-43.2768,
10.2920,0.0081,-0.0588,1.0260,-0.0226,-0.0326,-0.0422,-0.0188,0.0010,-0.0011,-2.0899,20.9026,-43.2234,
10.3130,0.0051,-0.0619,1.0250,-0.0226,-0.0326,-0.0422,-0.0188,0.0010,-0.0011,-2.0899,20.9026,-43.2234,
10.3150,0.0051,-0.0619,1.0250,-0.0226,-0.0326,-0.0422,-0.0038,0.0050,-0.0008,-2.0899,20.9026,-43.2234,
10.3440,0.0062,-0.0596,1.0258,-0.0226,-0.0326,-0.0422,-0.0038,0.0050,-0.0008,-2.0899,20.9026,-43.2234,
10.3460,0.0062,-0.0596,1.0258,-0.0226,-0.0326,-0.0422,-0.0069,-0.0042,-0.0024,-2.0899,20.9026,-43.2234,
10.3480,0.0077,-0.0612,1.0291,-0.0226,-0.0326,-0.0422,-0.0069,-0.0042,-0.0024,-2.0899,20.9026,-43.2234,
10.3490,0.0077,-0.0612,1.0291,0.0087,0.0265,0.0159,-0.0069,-0.0042,-0.0024,-2.0899,20.9026,-43.2234,
10.3580,0.0077,-0.0612,1.0291,0.0087,0.0265,0.0159,-0.0069,-0.0042,-0.0024,-2.0617,20.9720,-43.2310,
10.3800,0.0106,-0.0630,1.0217,0.0087,0.0265,0.0159,-0.0069,-0.0042,-0.0024,-2.0617,20.9720,-43.2310,
10.4010,0.0106,-0.0630,1.0217,0.0087,0.0265,0.0159,-0.0005,-0.0035,-0.0021,-2.0617,20.9720,-43.2310,
10.4030,0.0121,-0.0632,1.0255,0.0087,0.0265,0.0159,-0.0005,-0.0035,-0.0021,-2.0617,20.9720,-43.2310,
10.4040,0.0117,-0.0592,1.0218,0.0087,0.0265,0.0159,-0.0005,-0.0035,-0.0021,-2.0617,20.9720,-43.2310,
10.4040,0.0117,-0.0592,1.0218,-0.0476,-0.0581,0.0130,-0.0005,-0.0035,-0.0021,-2.0617,20.9720,-43.2310,
10.4240,0.0117,-0.0592,1.0218,-0.0476,-0.0581,0.0130,-0.0023,-0.0075,0.0007,-2.0617,20.9720,-43.2310,
10.4260,0.0096,-0.0581,1.0255,-0.0476,-0.0581,0.0130,-0.0023,-0.0075,0.0007,-2.0617,20.9720,-43.2310,
10.4260,0.0096,-0.0581,1.0255,-0.0476,-0.0581,0.0130,-0.0023,-0.0075,0.0007,-1.9863,21.0142,-43.2385,
10.4460,0.0149,-0.0597,1.0012,-0.0476,-0.0581,0.0130,-0.0023,-0.0075,0.0007,-1.9863,21.0142,-43.2385,
10.4810,0.0149,-0.0597,1.0012,-0.0011,-0.0477,0.0175,-0.0023,-0.0075,0.0007,-1.9863,21.0142,-43.2385,
10.4820,0.0118,-0.0638,1.0538,-0.0011,-0.0477,0.0175,-0.0023,-0.0075,0.0007,-1.9863,21.0142,-43.2385,
10.4830,0.0087,-0.0596,1.0106,-0.0011,-0.0477,0.0175,-0.0023,-0.0075,0.0007,-1.9863,21.0142,-43.2385,
10.4840,0.0087,-0.0596,1.0106,-0.0011,-0.0477,0.0175,-0.0325,0.0032,-0.0021,-1.9863,21.0142,-43.2385,
10.4900,0.0087,-0.0596,1.0106,-0.0011,-0.0477,0.0175,-0.0325,0.0032,-0.0021,-1.9091,21.0850,-43.2700,
10.5140,0.0103,-0.0555,1.0341,-0.0011,-0.0477,0.0175,-0.0325,0.0032,-0.0021,-1.9091,21.0850,-43.2700,
10.5150,0.0103,-0.0555,1.0341,-0.0011,-0.0477,0.0175,0.0047,-0.0078,-0.0030,-1.9091,21.0850,-43.2700,
10.5390,0.0145,-0.0527,1.0235,-0.0011,-0.0477,0.0175,0.0047,-0.0078,-0.0030,-1.9091,21.0850,-43.2700,
10.5400,0.0145,-0.0527,1.0235,-0.0011,-0.0477,0.0175,-0.0078,-0.0035,-0.0005,-1.9091,21.0850,-43.2700,
10.5410,0.0089,-0.0559,1.0219,-0.0011,-0.0477,0.0175,-0.0078,-0.0035,-0.0005,-1.9091,21.0850,-43.2700,
10.5410,0.0089,-0.0559,1.0219,-0.0034,-0.0311,-0.0538,-0.0078,-0.0035,-0.0005,-1.9091,21.0850,-43.2700,
10.5570,0.0050,-0.0619,1.0319,-0.0034,-0.0311,-0.0538,-0.0078,-0.0035,-0.0005,-1.9091,21.0850,-43.2700,
10.5590,0.0050,-0.0619,1.0319,-0.0034,-0.0311,-0.0538,-0.0078,-0.0035,-0.0005,-1.8584,21.1268,-43.2527,
10.5790,0.0083,-0.0621,1.0123,-0.0034,-0.0311,-0.0538,-0.0078,-0.0035,-0.0005,-1.8584,21.1268,-43.2527,
10.5810,0.0083,-0.0621,1.0123,-0.0034,-0.0311,-0.0538,-0.0115,-0.0066,0.0010,-1.8584,21.1268,-43.2527,
10.6170,0.0083,-0.0621,1.0123,-0.0154,0.0254,0.0337,-0.0115,-0.0066,0.0010,-1.8584,21.1268,-43.2527,
10.6180,0.0083,-0.0621,1.0123,-0.0154,0.0254,0.0337,-0.0194,-0.0045,-0.0024,-1.8584,21.1268,-43.2527,
10.6190,0.0100,-0.0630,1.0301,-0.0154,0.0254,0.0337,-0.0194,-0.0045,-0.0024,-1.8584,21.1268,-43.2527,
10.6190,0.0092,-0.0669,1.0253,-0.0154,0.0254,0.0337,-0.0194,-0.0045,-0.0024,-1.8584,21.1268,-43.2527,
10.6240,0.0092,-0.0669,1.0253,-0.0154,0.0254,0.0337,-0.0194,-0.0045,-0.0024,-1.8450,21.1576,-43.2247,
10.6470,0.0092,-0.0664,1.0277,-0.0154,0.0254,0.0337,-0.0194,-0.0045,-0.0024,-1.8450,21.1576,-43.2247,
10.6760,0.0092,-0.0664,1.0277,-0.0299,-0.0532,-0.0144,-0.0194,-0.0045,-0.0024,-1.8450,21.1576,-43.2247,
10.6770,0.0112,-0.0652,1.0228,-0.0299,-0.0532,-0.0144,-0.0194,-0.0045,-0.0024,-1.8450,21.1576,-43.2247,
10.6780,0.0107,-0.0647,1.0230,-0.0299,-0.0532,-0.0144,-0.0194,-0.0045,-0.0024,-1.8450,21.1576,-43.2247,
10.6790,0.0107,-0.0647,1.0230,-0.0299,-0.0532,-0.0144,0.0075,-0.0011,-0.0042,-1.8450,21.1576,-43.2247,
10.6910,0.0107,-0.0647,1.0230,-0.0299,-0.0532,-0.0144,0.0075,-0.0011,-0.0042,-1.8318,21.1888,-43.1837,
10.7130,0.0107,-0.0647,1.0230,-0.0299,-0.0532,-0.0144,0.0078,0.0001,-0.0021,-1.8318,21.1888,-43.1837,
10.7140,0.0115,-0.0636,1.0253,-0.0299,-0.0532,-0.0144,0.0078,0.0001,-0.0021,-1.8318,21.1888,-43.1837,
10.7150,0.0093,-0.0621,1.0274,-0.0299,-0.0532,-0.0144,0.0078,0.0001,-0.0021,-1.8318,21.1888,-43.1837,
10.7540,0.0110,-0.0608,1.0249,-0.0299,-0.0532,-0.0144,0.0078,0.0001,-0.0021,-1.8318,21.1888,-43.1837,
10.7550,0.0126,-0.0585,1.0169,-0.0299,-0.0532,-0.0144,0.0078,0.0001,-0.0021,-1.8318,21.1888,-43.1837,
10.7560,0.0126,-0.0585,1.0169,-0.0299,-0.0532,-0.0144,0.0151,-0.0020,0.0001,-1.8318,21.1888,-43.1837,
10.7560,0.0126,-0.0585,1.0169,-0.0088,-0.0668,0.0011,0.0151,-0.0020,0.0001,-1.8318,21.1888,-43.1837,
10.7570,0.0126,-0.0585,1.0169,-0.0088,-0.0668,0.0011,0.0151,-0.0020,0.0001,-1.7674,21.2496,-43.2034,
10.7800,0.0122,-0.0588,1.0242,-0.0088,-0.0668,0.0011,0.0151,-0.0020,0.0001,-1.7674,21.2496,-43.2034,
10.7820,0.0122,-0.0588,1.0242,-0.0088,-0.0668,0.0011,0.0004,0.0013,-0.0011,-1.7674,21.2496,-43.2034,
10.8100,0.0092,-0.0621,1.0326,-0.0088,-0.0668,0.0011,0.0004,0.0013,-0.0011,-1.7674,21.2496,-43.2034,
10.8120,0.0092,-0.0621,1.0326,-0.0088,-0.0668,0.0011,0.0121,-0.0023,-0.0021,-1.7674,21.2496,-43.2034,
10.8120,0.0092,-0.0614,1.0252,-0.0088,-0.0668,0.0011,0.0121,-0.0023,-0.0021,-1.7674,21.2496,-43.2034,
10.8130,0.0092,-0.0614,1.0252,-0.0069,-0.0254,-0.0117,0.0121,-0.0023,-0.0021,-1.7674,21.2496,-43.2034,
10.8240,0.0092,-0.0614,1.0252,-0.0069,-0.0254,-0.0117,0.0121,-0.0023,-0.0021,-1.7811,21.2196,-43.2057,
10.8460,0.0100,-0.0595,1.0201,-0.0069,-0.0254,-0.0117,0.0121,-0.0023,-0.0021,-1.7811,21.2196,-43.2057,
10.8900,0.0100,-0.0595,1.0201,-0.0069,-0.0254,-0.0117,-0.0026,0.0010,-0.0005,-1.7811,21.2196,-43.2057,
10.8920,0.0077,-0.0610,1.0158,-0.0069,-0.0254,-0.0117,-0.0026,0.0010,-0.0005,-1.7811,21.2196,-43.2057,
10.8930,0.0109,-0.0649,1.0046,-0.0069,-0.0254,-0.0117,-0.0026,0.0010,-0.0005,-1.7811,21.2196,-43.2057,
10.8940,0.0110,-0.0698,1.0620,-0.0069,-0.0254,-0.0117,-0.0026,0.0010,-0.0005,-1.7811,21.2196,-43.2057,
10.8940,0.0110,-0.0698,1.0620,-0.0069,-0.0254,-0.0117,0.0001,0.0353,-0.0027,-1.7811,21.2196,-43.2057,
10.8950,0.0110,-0.0698,1.0620,0.0024,-0.0185,0.0205,0.0001,0.0353,-0.0027,-1.7811,21.2196,-43.2057,
10.8950,0.0110,-0.0698,1.0620,0.0024,-0.0185,0.0205,0.0001,0.0353,-0.0027,-1.7693,21.2210,-43.1795,
10.9130,0.0087,-0.0657,1.0250,0.0024,-0.0185,0.0205,0.0001,0.0353,-0.0027,-1.7693,21.2210,-43.1795,
10.9510,0.0087,-0.0657,1.0250,0.0024,-0.0185,0.0205,0.0282,-0.0292,-0.0017,-1.7693,21.2210,-43.1795,
10.9530,0.0063,-0.0620,1.0173,0.0024,-0.0185,0.0205,0.0282,-0.0292,-0.0017,-1.7693,21.2210,-43.1795,
10.9540,0.0112,-0.0609,1.0340,0.0024,-0.0185,0.0205,0.0282,-0.0292,-0.0017,-1.7693,21.2210,-43.1795,
10.9550,0.0112,-0.0609,1.0340,-0.0166,-0.0722,0.0087,0.0282,-0.0292,-0.0017,-1.7693,21.2210,-43.1795,
10.9570,0.0112,-0.0609,1.0340,-0.0166,-0.0722,0.0087,0.0282,-0.0292,-0.0017,-1.7929,21.2069,-43.2840,
10.9800,0.0116,-0.0554,1.0146,-0.0166,-0.0722,0.0087,0.0282,-0.0292,-0.0017,-1.7929,21.2069,-43.2840,
10.9820,0.0116,-0.0554,1.0146,-0.0166,-0.0722,0.0087,0.0472,-0.0087,-0.0017,-1.7929,21.2069,-43.2840,
11.0250,0.0110,-0.0530,1.0224,-0.0166,-0.0722,0.0087,0.0472,-0.0087,-0.0017,-1.7929,21.2069,-43.2840,
11.0260,0.0110,-0.0530,1.0224,-0.0166,-0.0722,0.0087,0.0472,-0.0087,-0.0017,-1.8928,21.1530,-43.3037,
11.0270,0.0138,-0.0540,1.0250,-0.0166,-0.0722,0.0087,0.0472,-0.0087,-0.0017,-1.8928,21.1530,-43.3037,
11.0270,0.0138,-0.0540,1.0250,-0.0166,-0.0722,0.0087,0.0163,-0.0008,0.0016,-1.8928,21.1530,-43.3037,
11.0280,0.0109,-0.0566,1.0261,-0.0166,-0.0722,0.0087,0.0163,-0.0008,0.0016,-1.8928,21.1530,-43.3037,
11.0280,0.0109,-0.0566,1.0261,-0.0197,-0.0553,-0.0046,0.0163,-0.0008,0.0016,-1.8928,21.1530,-43.3037,
11.0460,0.0109,-0.0566,1.0261,-0.0197,-0.0553,-0.0046,0.0234,-0.0002,0.0010,-1.8928,21.1530,-43.3037,
11.0470,0.0062,-0.0614,1.0235,-0.0197,-0.0553,-0.0046,0.0234,-0.0002,0.0010,-1.8928,21.1530,-43.3037,
11.0850,0.0062,-0.0614,1.0235,-0.0197,-0.0553,-0.0046,0.0230,-0.0005,-0.0008,-1.8928,21.1530,-43.3037,
11.0870,0.0056,-0.0610,1.0228,-0.0197,-0.0553,-0.0046,0.0230,-0.0005,-0.0008,-1.8928,21.1530,-43.3037,
11.0870,0.0076,-0.0607,1.0249,-0.0197,-0.0553,-0.0046,0.0230,-0.0005,-0.0008,-1.8928,21.1530,-43.3037,
11.0880,0.0076,-0.0607,1.0249,0.0048,0.0011,-0.0234,0.0230,-0.0005,-0.0008,-1.8928,21.1530,-43.3037,
11.0910,0.0076,-0.0607,1.0249,0.0048,0.0011,-0.0234,0.0230,-0.0005,-0.0008,-1.9038,21.1827,-43.2765,
11.1140,0.0088,-0.0601,1.0234,0.0048,0.0011,-0.0234,0.0230,-0.0005,-0.0008,-1.9038,21.1827,-43.2765,
11.1570,0.0088,-0.0601,1.0234,0.0048,0.0011,-0.0234,0.0188,-0.0048,-0.0021,-1.9038,21.1827,-43.2765,
11.1580,0.0121,-0.0614,1.0279,0.0048,0.0011,-0.0234,0.0188,-0.0048,-0.0021,-1.9038,21.1827,-43.2765,
11.1590,0.0110,-0.0598,1.0223,0.0048,0.0011,-0.0234,0.0188,-0.0048,-0.0021,-1.9038,21.1827,-43.2765,
11.1590,0.0110,-0.0598,1.0223,0.0048,0.0011,-0.0234,0.0188,-0.0048,-0.0021,-1.9421,21.1520,-43.2669,
11.1620,0.0095,-0.0566,1.0179,0.0048,0.0011,-0.0234,0.0188,-0.0048,-0.0021,-1.9421,21.1520,-43.2669,
11.1630,0.0095,-0.0566,1.0179,0.0048,0.0011,-0.0234,0.0285,-0.0060,-0.0024,-1.9421,21.1520,-43.2669,
11.1630,0.0095,-0.0566,1.0179,-0.0451,-0.0686,-0.0121,0.0285,-0.0060,-0.0024,-1.9421,21.1520,-43.2669,
11.2230,0.0095,-0.0566,1.0179,-0.0451,-0.0686,-0.0121,0.0026,-0.0081,0.0007,-1.9421,21.1520,-43.2669,
11.2240,0.0087,-0.0541,1.0241,-0.0451,-0.0686,-0.0121,0.0026,-0.0081,0.0007,-1.9421,21.1520,-43.2669,
11.2250,0.0147,-0.0560,0.9980,-0.0451,-0.0686,-0.0121,0.0026,-0.0081,0.0007,-1.9421,21.1520,-43.2669,
11.2260,0.0133,-0.0599,1.0597,-0.0451,-0.0686,-0.0121,0.0026,-0.0081,0.0007,-1.9421,21.1520,-43.2669,
11.2270,0.0133,-0.0599,1.0597,-0.0060,-0.0584,-0.0157,0.0026,-0.0081,0.0007,-1.9421,21.1520,-43.2669,
11.2280,0.0133,-0.0599,1.0597,-0.0060,-0.0584,-0.0157,0.0026,-0.0081,0.0007,-1.9440,21.0903,-43.3608,
11.2450,0.0133,-0.0599,1.0597,-0.0060,-0.0584,-0.0157,0.0304,-0.0023,-0.0021,-1.9440,21.0903,-43.3608,
11.2470,0.0100,-0.0558,1.0043,-0.0060,-0.0584,-0.0157,0.0304,-0.0023,-0.0021,-1.9440,21.0903,-43.3608,
11.2920,0.0087,-0.0516,1.0311,-0.0060,-0.0584,-0.0157,0.0304,-0.0023,-0.0021,-1.9440,21.0903,-43.3608,
11.2930,0.0153,-0.0463,1.0269,-0.0060,-0.0584,-0.0157,0.0304,-0.0023,-0.0021,-1.9440,21.0903,-43.3608,
11.2930,0.0153,-0.0463,1.0269,-0.0060,-0.0584,-0.0157,0.0176,-0.0032,0.0001,-1.9440,21.0903,-43.3608,
