
time,gFx,gFy,gFz,ax,ay,az,wx,wy,wz,Bx,By,Bz,
0.0470,-0.0827,-0.0155,0.9958,0.0000,0.0000,0.0000,0.0000,0.0000,0.0000,0.0000,0.0000,0.0000,
0.0910,-0.0838,-0.0105,1.0682,0.0000,0.0000,0.0000,0.0000,0.0000,0.0000,0.0000,0.0000,0.0000,
0.0920,-0.0784,0.0109,1.0389,0.0000,0.0000,0.0000,0.0000,0.0000,0.0000,0.0000,0.0000,0.0000,
0.0930,-0.0784,0.0109,1.0389,0.0000,0.0000,0.0000,0.0068,-0.0732,0.0037,0.0000,0.0000,0.0000,
0.1130,-0.0519,0.0218,0.9893,0.0000,0.0000,0.0000,0.0068,-0.0732,0.0037,0.0000,0.0000,0.0000,
0.1140,-0.0519,0.0218,0.9893,0.0000,0.0000,0.0000,0.0721,-0.1279,0.0046,0.0000,0.0000,0.0000,
0.1150,-0.0101,0.0152,0.9828,0.0000,0.0000,0.0000,0.0721,-0.1279,0.0046,0.0000,0.0000,0.0000,
0.1590,-0.0101,0.0152,0.9828,0.0000,0.0000,0.0000,-0.0085,-0.0610,0.0199,0.0000,0.0000,0.0000,
0.1600,-0.0221,0.0064,1.0421,0.0000,0.0000,0.0000,-0.0085,-0.0610,0.0199,0.0000,0.0000,0.0000,
0.1600,-0.0221,0.0064,1.0421,0.0000,0.0000,0.0000,-0.0085,-0.0610,0.0199,-0.6033,18.5884,-44.4855,
0.1610,-0.0580,0.0136,1.0218,0.0000,0.0000,0.0000,-0.0085,-0.0610,0.0199,-0.6033,18.5884,-44.4855,
0.1690,-0.0420,0.0004,1.0089,0.0000,0.0000,0.0000,-0.0085,-0.0610,0.0199,-0.6033,18.5884,-44.4855,
0.1700,-0.0420,0.0004,1.0089,0.0000,0.0000,0.0000,0.0282,-0.0482,-0.0021,-0.6033,18.5884,-44.4855,
0.1700,-0.0420,0.0004,1.0089,0.0000,0.0000,0.0000,0.0282,-0.0482,-0.0021,-0.6033,18.5884,-44.4855,
0.2250,-0.0286,-0.0211,1.0274,0.0000,0.0000,0.0000,0.0282,-0.0482,-0.0021,-0.6033,18.5884,-44.4855,
0.2260,-0.0286,-0.0211,1.0274,0.0000,0.0000,0.0000,-0.0024,-0.0081,0.0306,-0.6033,18.5884,-44.4855,
0.2270,-0.0415,-0.0296,1.0433,0.0000,0.0000,0.0000,-0.0024,-0.0081,0.0306,-0.6033,18.5884,-44.4855,
0.2280,-0.0415,-0.0296,1.0433,0.0000,0.0000,0.0000,-0.0024,-0.0081,0.0306,-0.5571,18.6568,-44.5655,
0.2440,-0.0441,-0.0238,1.0619,0.0000,0.0000,0.0000,-0.0024,-0.0081,0.0306,-0.5571,18.6568,-44.5655,
0.2470,-0.0315,-0.0117,1.0271,0.0000,0.0000,0.0000,-0.0024,-0.0081,0.0306,-0.5571,18.6568,-44.5655,
0.2480,-0.0315,-0.0117,1.0271,0.0000,0.0000,0.0000,0.0764,-0.0194,0.0309,-0.5571,18.6568,-44.5655,
0.2490,-0.0315,-0.0117,1.0271,0.0612,-0.0616,0.0574,0.0764,-0.0194,0.0309,-0.5571,18.6568,-44.5655,
0.2920,-0.0175,-0.0105,0.9915,0.0612,-0.0616,0.0574,0.0764,-0.0194,0.0309,-0.5571,18.6568,-44.5655,
0.2930,-0.0175,-0.0105,0.9915,0.0612,-0.0616,0.0574,0.0236,0.0105,0.0251,-0.5571,18.6568,-44.5655,
0.2940,-0.0175,-0.0105,0.9915,0.0612,-0.0616,0.0574,0.0236,0.0105,0.0251,-0.6590,18.5891,-44.5048,
0.2950,-0.0136,-0.0172,1.0218,0.0612,-0.0616,0.0574,0.0236,0.0105,0.0251,-0.6590,18.5891,-44.5048,
0.3060,-0.0136,-0.0172,1.0218,0.0572,-0.2283,0.1438,0.0236,0.0105,0.0251,-0.6590,18.5891,-44.5048,
0.3080,-0.0272,-0.0156,1.0559,0.0572,-0.2283,0.1438,0.0236,0.0105,0.0251,-0.6590,18.5891,-44.5048,
0.3590,-0.0401,-0.0066,1.0137,0.0572,-0.2283,0.1438,0.0236,0.0105,0.0251,-0.6590,18.5891,-44.5048,
0.3600,-0.0738,-0.0102,0.9460,0.0572,-0.2283,0.1438,0.0236,0.0105,0.0251,-0.6590,18.5891,-44.5048,
0.3610,-0.0738,-0.0102,0.9460,0.0572,-0.2283,0.1438,0.0779,0.0386,0.0067,-0.6590,18.5891,-44.5048,
0.3610,-0.0738,-0.0102,0.9460,0.0572,-0.2283,0.1438,0.0779,0.0386,0.0067,-0.6862,18.5359,-44.5005,
0.3780,-0.0910,-0.0318,1.0184,0.0572,-0.2283,0.1438,0.0779,0.0386,0.0067,-0.6862,18.5359,-44.5005,
0.3790,-0.0910,-0.0318,1.0184,0.0572,-0.2283,0.1438,0.0407,-0.1065,-0.0537,-0.6862,18.5359,-44.5005,
0.3840,-0.0494,-0.0377,1.0652,0.0572,-0.2283,0.1438,0.0407,-0.1065,-0.0537,-0.6862,18.5359,-44.5005,
0.3850,-0.0494,-0.0377,1.0652,0.0895,-0.1477,-0.0086,0.0407,-0.1065,-0.0537,-0.6862,18.5359,-44.5005,
0.4260,-0.0494,-0.0377,1.0652,0.0895,-0.1477,-0.0086,0.2056,-0.3182,-0.0968,-0.6862,18.5359,-44.5005,
0.4270,0.0220,-0.0172,0.9903,0.0895,-0.1477,-0.0086,0.2056,-0.3182,-0.0968,-0.6862,18.5359,-44.5005,
0.4280,0.0480,0.0094,0.9980,0.0895,-0.1477,-0.0086,0.2056,-0.3182,-0.0968,-0.6862,18.5359,-44.5005,
0.4290,0.0480,0.0094,0.9980,0.0895,-0.1477,-0.0086,0.2056,-0.3182,-0.0968,-0.8457,18.3546,-44.5739,
0.4430,0.0480,0.0094,0.9980,0.0895,-0.1477,-0.0086,0.1964,-0.1025,-0.1121,-0.8457,18.3546,-44.5739,
0.4460,0.0336,0.0463,1.0941,0.0895,-0.1477,-0.0086,0.1964,-0.1025,-0.1121,-0.8457,18.3546,-44.5739,
0.4470,0.0336,0.0463,1.0941,-0.3592,-0.3170,-0.1592,0.1964,-0.1025,-0.1121,-0.8457,18.3546,-44.5739,
0.4900,0.0695,0.0670,1.0754,-0.3592,-0.3170,-0.1592,0.1964,-0.1025,-0.1121,-0.8457,18.3546,-44.5739,
0.4920,0.0695,0.0670,1.0754,-0.3592,-0.3170,-0.1592,0.2349,0.3599,0.0871,-0.8457,18.3546,-44.5739,
0.4920,0.0695,0.0670,1.0754,-0.3592,-0.3170,-0.1592,0.2349,0.3599,0.0871,-0.9390,18.1538,-44.6959,
0.4930,0.0995,0.0538,1.0264,-0.3592,-0.3170,-0.1592,0.2349,0.3599,0.0871,-0.9390,18.1538,-44.6959,
0.5110,0.0596,0.0147,1.0533,-0.3592,-0.3170,-0.1592,0.2349,0.3599,0.0871,-0.9390,18.1538,-44.6959,
0.5220,0.0596,0.0147,1.0533,0.9074,-0.0139,0.1336,0.2349,0.3599,0.0871,-0.9390,18.1538,-44.6959,
0.5240,0.0596,0.0147,1.0533,0.9074,-0.0139,0.1336,0.1515,0.7579,0.0513,-0.9390,18.1538,-44.6959,
0.5250,-0.0192,-0.0001,1.1659,0.9074,-0.0139,0.1336,0.1515,0.7579,0.0513,-0.9390,18.1538,-44.6959,
0.5590,-0.0192,-0.0001,1.1659,0.9074,-0.0139,0.1336,0.1515,0.7579,0.0513,-0.8129,17.9741,-44.7785,
0.5600,-0.0680,0.0075,0.9988,0.9074,-0.0139,0.1336,0.1515,0.7579,0.0513,-0.8129,17.9741,-44.7785,
0.5800,-0.1048,0.0174,0.9389,0.9074,-0.0139,0.1336,0.1515,0.7579,0.0513,-0.8129,17.9741,-44.7785,
0.5810,-0.1048,0.0174,0.9389,1.2724,-0.0334,0.4987,0.1515,0.7579,0.0513,-0.8129,17.9741,-44.7785,
0.5820,-0.1048,0.0174,0.9389,1.2724,-0.0334,0.4987,0.2050,0.6647,0.0449,-0.8129,17.9741,-44.7785,
0.5820,-0.1490,0.0345,1.0379,1.2724,-0.0334,0.4987,0.2050,0.6647,0.0449,-0.8129,17.9741,-44.7785,
0.6250,-0.1490,0.0345,1.0379,1.2724,-0.0334,0.4987,0.1039,0.5429,0.1115,-0.8129,17.9741,-44.7785,
0.6260,-0.1604,0.0544,0.9992,1.2724,-0.0334,0.4987,0.1039,0.5429,0.1115,-0.8129,17.9741,-44.7785,
0.6270,-0.1560,0.0754,0.9269,1.2724,-0.0334,0.4987,0.1039,0.5429,0.1115,-0.8129,17.9741,-44.7785,
0.6280,-0.1560,0.0754,0.9269,1.2724,-0.0334,0.4987,0.1039,0.5429,0.1115,-0.3468,17.7282,-44.8472,
0.6450,-0.1560,0.0754,0.9269,1.2724,-0.0334,0.4987,0.0370,0.2502,0.1182,-0.3468,17.7282,-44.8472,
0.6470,-0.1686,0.0959,0.8970,1.2724,-0.0334,0.4987,0.0370,0.2502,0.1182,-0.3468,17.7282,-44.8472,
0.6580,-0.2132,0.1103,1.0564,1.2724,-0.0334,0.4987,0.0370,0.2502,0.1182,-0.3468,17.7282,-44.8472,
0.6590,-0.2132,0.1103,1.0564,-0.2000,-0.0807,-0.2679,0.0370,0.2502,0.1182,-0.3468,17.7282,-44.8472,
0.6940,-0.2147,0.1168,1.1011,-0.2000,-0.0807,-0.2679,0.0370,0.2502,0.1182,-0.3468,17.7282,-44.8472,
0.6950,-0.2147,0.1168,1.1011,-0.2000,-0.0807,-0.2679,0.0370,0.2502,0.1182,0.1002,17.4016,-44.9675,
0.6960,-0.2147,0.1168,1.1011,-0.2000,-0.0807,-0.2679,-0.0888,-0.1523,0.0874,0.1002,17.4016,-44.9675,
0.7120,-0.1913,0.1201,1.0394,-0.2000,-0.0807,-0.2679,-0.0888,-0.1523,0.0874,0.1002,17.4016,-44.9675,
0.7160,-0.1865,0.1193,0.9482,-0.2000,-0.0807,-0.2679,-0.0888,-0.1523,0.0874,0.1002,17.4016,-44.9675,
0.7170,-0.1865,0.1193,0.9482,-1.0214,0.5192,-0.5423,-0.0888,-0.1523,0.0874,0.1002,17.4016,-44.9675,
0.7170,-0.1865,0.1193,0.9482,-1.0214,0.5192,-0.5423,-0.0097,-0.5591,-0.0208,0.1002,17.4016,-44.9675,
0.7570,-0.2063,0.0984,0.9766,-1.0214,0.5192,-0.5423,-0.0097,-0.5591,-0.0208,0.1002,17.4016,-44.9675,
0.7580,-0.1782,0.0577,1.0801,-1.0214,0.5192,-0.5423,-0.0097,-0.5591,-0.0208,0.1002,17.4016,-44.9675,
0.7590,-0.1782,0.0577,1.0801,-1.0214,0.5192,-0.5423,-0.0097,-0.5591,-0.0208,0.3307,17.1462,-45.0138,
0.7600,-0.1782,0.0577,1.0801,-1.0214,0.5192,-0.5423,-0.1954,-0.6557,0.0122,0.3307,17.1462,-45.0138,
0.7790,-0.0602,0.0335,1.0210,-1.0214,0.5192,-0.5423,-0.1954,-0.6557,0.0122,0.3307,17.1462,-45.0138,
0.7940,-0.0037,0.0488,1.0707,-1.0214,0.5192,-0.5423,-0.1954,-0.6557,0.0122,0.3307,17.1462,-45.0138,
0.7950,-0.0037,0.0488,1.0707,-1.0214,0.5192,-0.5423,-0.1056,-0.7549,0.0342,0.3307,17.1462,-45.0138,
0.7960,-0.0037,0.0488,1.0707,-1.5472,0.8044,-0.0395,-0.1056,-0.7549,0.0342,0.3307,17.1462,-45.0138,
0.8260,-0.0261,0.0695,1.0109,-1.5472,0.8044,-0.0395,-0.1056,-0.7549,0.0342,0.3307,17.1462,-45.0138,
0.8270,-0.0261,0.0695,1.0109,-1.5472,0.8044,-0.0395,-0.1056,-0.7549,0.0342,0.3801,16.9116,-45.0781,
0.8450,-0.0298,0.0621,0.9809,-1.5472,0.8044,-0.0395,-0.1056,-0.7549,0.0342,0.3801,16.9116,-45.0781,
0.8460,-0.0298,0.0621,0.9809,-1.5472,0.8044,-0.0395,-0.1560,-0.6141,-0.1185,0.3801,16.9116,-45.0781,
0.8520,-0.0298,0.0621,0.9809,-0.8531,0.2663,0.2598,-0.1560,-0.6141,-0.1185,0.3801,16.9116,-45.0781,
0.8530,0.0333,0.0163,1.0086,-0.8531,0.2663,0.2598,-0.1560,-0.6141,-0.1185,0.3801,16.9116,-45.0781,
0.8920,0.0908,-0.0356,1.0322,-0.8531,0.2663,0.2598,-0.1560,-0.6141,-0.1185,0.3801,16.9116,-45.0781,
0.8930,0.0908,-0.0356,1.0322,-0.8531,0.2663,0.2598,-0.1847,-0.3634,-0.0809,0.3801,16.9116,-45.0781,
0.8940,0.0908,-0.0356,1.0322,-0.8531,0.2663,0.2598,-0.1847,-0.3634,-0.0809,0.1327,16.8316,-45.1046,
0.9120,0.1057,-0.0559,1.0614,-0.8531,0.2663,0.2598,-0.1847,-0.3634,-0.0809,0.1327,16.8316,-45.1046,
0.9150,0.0855,-0.0347,1.0598,-0.8531,0.2663,0.2598,-0.1847,-0.3634,-0.0809,0.1327,16.8316,-45.1046,
0.9160,0.0855,-0.0347,1.0598,-0.8531,0.2663,0.2598,-0.2061,-0.1242,-0.0742,0.1327,16.8316,-45.1046,
0.9310,0.0855,-0.0347,1.0598,0.0914,0.2523,-0.1978,-0.2061,-0.1242,-0.0742,0.1327,16.8316,-45.1046,
0.9320,0.0514,-0.0058,1.0189,0.0914,0.2523,-0.1978,-0.2061,-0.1242,-0.0742,0.1327,16.8316,-45.1046,
0.9590,0.0514,-0.0058,1.0189,0.0914,0.2523,-0.1978,-0.2651,0.0203,-0.0635,0.1327,16.8316,-45.1046,
0.9600,0.0210,-0.0155,0.9776,0.0914,0.2523,-0.1978,-0.2651,0.0203,-0.0635,0.1327,16.8316,-45.1046,
0.9610,0.0210,-0.0155,0.9776,0.0914,0.2523,-0.1978,-0.2651,0.0203,-0.0635,-0.0581,16.9011,-45.1198,
0.9780,0.0137,-0.0618,1.0627,0.0914,0.2523,-0.1978,-0.2651,0.0203,-0.0635,-0.0581,16.9011,-45.1198,
0.9890,0.0137,-0.0618,1.0627,0.0914,0.2523,-0.1978,-0.2083,0.0352,-0.0229,-0.0581,16.9011,-45.1198,
0.9900,0.0142,-0.0955,1.0330,0.0914,0.2523,-0.1978,-0.2083,0.0352,-0.0229,-0.0581,16.9011,-45.1198,
0.9910,0.0142,-0.0955,1.0330,0.8129,-0.2884,0.2124,-0.2083,0.0352,-0.0229,-0.0581,16.9011,-45.1198,
1.0240,0.0142,-0.0955,1.0330,0.8129,-0.2884,0.2124,-0.2083,0.0352,-0.0229,-0.2187,17.1233,-44.9831,
1.0260,0.0068,-0.0864,1.0062,0.8129,-0.2884,0.2124,-0.2083,0.0352,-0.0229,-0.2187,17.1233,-44.9831,
1.0460,0.0201,-0.0459,1.0119,0.8129,-0.2884,0.2124,-0.2083,0.0352,-0.0229,-0.2187,17.1233,-44.9831,
1.0470,0.0201,-0.0459,1.0119,0.8129,-0.2884,0.2124,-0.1203,-0.0045,0.0037,-0.2187,17.1233,-44.9831,
1.0680,0.0201,-0.0459,1.0119,0.8129,-0.2884,0.2124,-0.0314,0.0371,-0.0357,-0.2187,17.1233,-44.9831,
1.0690,0.0484,-0.0163,1.0063,0.8129,-0.2884,0.2124,-0.0314,0.0371,-0.0357,-0.2187,17.1233,-44.9831,
1.0700,0.0558,-0.0055,1.0172,0.8129,-0.2884,0.2124,-0.0314,0.0371,-0.0357,-0.2187,17.1233,-44.9831,
1.0700,0.0558,-0.0055,1.0172,0.1421,-0.4859,-0.0270,-0.0314,0.0371,-0.0357,-0.2187,17.1233,-44.9831,
1.0910,0.0272,0.0088,1.0086,0.1421,-0.4859,-0.0270,-0.0314,0.0371,-0.0357,-0.2187,17.1233,-44.9831,
1.0920,0.0272,0.0088,1.0086,0.1421,-0.4859,-0.0270,-0.0314,0.0371,-0.0357,-0.5596,17.3865,-44.8502,
1.1120,0.0272,0.0088,1.0086,0.1421,-0.4859,-0.0270,-0.0012,0.0798,-0.0324,-0.5596,17.3865,-44.8502,
1.1130,0.0005,0.0254,0.9835,0.1421,-0.4859,-0.0270,-0.0012,0.0798,-0.0324,-0.5596,17.3865,-44.8502,
1.1260,0.0005,0.0254,0.9835,0.3922,-0.1312,-0.1242,-0.0012,0.0798,-0.0324,-0.5596,17.3865,-44.8502,
1.1270,-0.0111,0.0268,1.0326,0.3922,-0.1312,-0.1242,-0.0012,0.0798,-0.0324,-0.5596,17.3865,-44.8502,
1.1570,-0.0111,0.0268,1.0326,0.3922,-0.1312,-0.1242,-0.0977,0.1070,0.0498,-0.5596,17.3865,-44.8502,
1.1580,-0.0088,0.0124,1.0410,0.3922,-0.1312,-0.1242,-0.0977,0.1070,0.0498,-0.5596,17.3865,-44.8502,
1.1590,-0.0088,0.0124,1.0410,0.3922,-0.1312,-0.1242,-0.0977,0.1070,0.0498,-1.1968,17.7920,-44.7574,
1.1790,-0.0155,-0.0005,1.0250,0.3922,-0.1312,-0.1242,-0.0977,0.1070,0.0498,-1.1968,17.7920,-44.7574,
1.2050,-0.0155,-0.0005,1.0250,0.3922,-0.1312,-0.1242,-0.1014,0.0618,0.0507,-1.1968,17.7920,-44.7574,
1.2070,-0.0222,-0.0064,1.0107,0.3922,-0.1312,-0.1242,-0.1014,0.0618,0.0507,-1.1968,17.7920,-44.7574,
1.2070,-0.0233,-0.0183,1.0222,0.3922,-0.1312,-0.1242,-0.1014,0.0618,0.0507,-1.1968,17.7920,-44.7574,
1.2080,-0.0233,-0.0183,1.0222,0.1016,0.4153,-0.0935,-0.1014,0.0618,0.0507,-1.1968,17.7920,-44.7574,
1.2250,-0.0233,-0.0183,1.0222,0.1016,0.4153,-0.0935,-0.1548,0.0288,0.0541,-1.1968,17.7920,-44.7574,
1.2260,-0.0266,-0.0391,1.0453,0.1016,0.4153,-0.0935,-0.1548,0.0288,0.0541,-1.1968,17.7920,-44.7574,
1.2270,-0.0266,-0.0391,1.0453,0.1016,0.4153,-0.0935,-0.1548,0.0288,0.0541,-1.8090,18.2304,-44.5845,
1.2450,-0.0290,-0.0562,1.0304,0.1016,0.4153,-0.0935,-0.1548,0.0288,0.0541,-1.8090,18.2304,-44.5845,
1.2620,-0.0231,-0.0599,0.9959,0.1016,0.4153,-0.0935,-0.1548,0.0288,0.0541,-1.8090,18.2304,-44.5845,
1.2630,-0.0231,-0.0599,0.9959,0.1016,0.4153,-0.0935,-0.1020,-0.0372,0.0522,-1.8090,18.2304,-44.5845,
1.2640,-0.0231,-0.0599,0.9959,-0.1173,0.2279,-0.0056,-0.1020,-0.0372,0.0522,-1.8090,18.2304,-44.5845,
1.2910,-0.0116,-0.0543,0.9794,-0.1173,0.2279,-0.0056,-0.1020,-0.0372,0.0522,-1.8090,18.2304,-44.5845,
1.2930,-0.0116,-0.0543,0.9794,-0.1173,0.2279,-0.0056,-0.1020,-0.0372,0.0522,-2.2267,18.6571,-44.4313,
1.3120,-0.0062,-0.0544,1.0770,-0.1173,0.2279,-0.0056,-0.1020,-0.0372,0.0522,-2.2267,18.6571,-44.4313,
1.3130,-0.0062,-0.0544,1.0770,-0.1173,0.2279,-0.0056,-0.1227,0.0316,0.0477,-2.2267,18.6571,-44.4313,
1.3410,-0.0062,-0.0544,1.0770,-0.1610,-0.1627,-0.0496,-0.1227,0.0316,0.0477,-2.2267,18.6571,-44.4313,
1.3420,-0.0062,-0.0544,1.0770,-0.1610,-0.1627,-0.0496,-0.0418,-0.0222,0.0330,-2.2267,18.6571,-44.4313,
1.3430,-0.0097,-0.0485,1.0285,-0.1610,-0.1627,-0.0496,-0.0418,-0.0222,0.0330,-2.2267,18.6571,-44.4313,
1.3430,-0.0051,-0.0388,0.9772,-0.1610,-0.1627,-0.0496,-0.0418,-0.0222,0.0330,-2.2267,18.6571,-44.4313,
1.3580,-0.0051,-0.0388,0.9772,-0.1610,-0.1627,-0.0496,-0.0418,-0.0222,0.0330,-2.4109,19.1227,-44.2932,
1.3780,-0.0043,-0.0257,1.0420,-0.1610,-0.1627,-0.0496,-0.0418,-0.0222,0.0330,-2.4109,19.1227,-44.2932,
1.4000,-0.0064,-0.0149,1.0361,-0.1610,-0.1627,-0.0496,-0.0418,-0.0222,0.0330,-2.4109,19.1227,-44.2932,
1.4000,-0.0165,-0.0121,1.0185,-0.1610,-0.1627,-0.0496,-0.0418,-0.0222,0.0330,-2.4109,19.1227,-44.2932,
1.4010,-0.0165,-0.0121,1.0185,-0.1610,-0.1627,-0.0496,-0.0445,0.0511,0.0480,-2.4109,19.1227,-44.2932,
1.4020,-0.0165,-0.0121,1.0185,0.0367,-0.0909,-0.0076,-0.0445,0.0511,0.0480,-2.4109,19.1227,-44.2932,
1.4240,-0.0316,-0.0255,1.0186,0.0367,-0.0909,-0.0076,-0.0445,0.0511,0.0480,-2.4109,19.1227,-44.2932,
1.4250,-0.0316,-0.0255,1.0186,0.0367,-0.0909,-0.0076,-0.0464,0.0361,0.0593,-2.4109,19.1227,-44.2932,
1.4270,-0.0316,-0.0255,1.0186,0.0367,-0.0909,-0.0076,-0.0464,0.0361,0.0593,-2.3464,19.4517,-44.1805,
1.4450,-0.0237,-0.0562,1.0273,0.0367,-0.0909,-0.0076,-0.0464,0.0361,0.0593,-2.3464,19.4517,-44.1805,
1.4780,-0.0237,-0.0562,1.0273,0.0367,-0.0909,-0.0076,-0.0842,0.0288,0.0177,-2.3464,19.4517,-44.1805,
1.4790,-0.0237,-0.0562,1.0273,0.0025,0.2227,0.0768,-0.0842,0.0288,0.0177,-2.3464,19.4517,-44.1805,
1.4800,-0.0253,-0.0783,1.0393,0.0025,0.2227,0.0768,-0.0842,0.0288,0.0177,-2.3464,19.4517,-44.1805,
1.4810,-0.0241,-0.0789,1.0216,0.0025,0.2227,0.0768,-0.0842,0.0288,0.0177,-2.3464,19.4517,-44.1805,
1.4910,-0.0241,-0.0789,1.0216,0.0025,0.2227,0.0768,-0.0842,0.0288,0.0177,-2.2844,19.7426,-44.0318,
1.5120,-0.0117,-0.0591,1.0286,0.0025,0.2227,0.0768,-0.0842,0.0288,0.0177,-2.2844,19.7426,-44.0318,
1.5140,-0.0117,-0.0591,1.0286,0.0025,0.2227,0.0768,-0.0039,-0.0170,-0.0076,-2.2844,19.7426,-44.0318,
1.5360,-0.0023,-0.0422,1.0365,0.0025,0.2227,0.0768,-0.0039,-0.0170,-0.0076,-2.2844,19.7426,-44.0318,
1.5390,-0.0023,-0.0422,1.0365,-0.1340,-0.2306,0.0413,-0.0039,-0.0170,-0.0076,-2.2844,19.7426,-44.0318,
1.5400,-0.0050,-0.0383,1.0289,-0.1340,-0.2306,0.0413,-0.0039,-0.0170,-0.0076,-2.2844,19.7426,-44.0318,
1.5410,-0.0050,-0.0383,1.0289,-0.1340,-0.2306,0.0413,0.0315,-0.0353,0.0211,-2.2844,19.7426,-44.0318,
1.5570,-0.0053,-0.0435,1.0152,-0.1340,-0.2306,0.0413,0.0315,-0.0353,0.0211,-2.2844,19.7426,-44.0318,
1.5590,-0.0053,-0.0435,1.0152,-0.1340,-0.2306,0.0413,0.0315,-0.0353,0.0211,-2.2011,19.9537,-43.9643,
1.5790,-0.0053,-0.0435,1.0152,-0.1340,-0.2306,0.0413,0.0010,-0.0442,0.0061,-2.2011,19.9537,-43.9643,
1.5800,0.0071,-0.0518,1.0310,-0.1340,-0.2306,0.0413,0.0010,-0.0442,0.0061,-2.2011,19.9537,-43.9643,
1.6160,0.0101,-0.0585,1.0146,-0.1340,-0.2306,0.0413,0.0010,-0.0442,0.0061,-2.2011,19.9537,-43.9643,
1.6170,0.0101,-0.0585,1.0146,0.0167,-0.0235,0.0567,0.0010,-0.0442,0.0061,-2.2011,19.9537,-43.9643,
1.6180,0.0131,-0.0626,1.0086,0.0167,-0.0235,0.0567,0.0010,-0.0442,0.0061,-2.2011,19.9537,-43.9643,
1.6180,0.0131,-0.0626,1.0086,0.0167,-0.0235,0.0567,-0.0277,-0.0512,-0.0101,-2.2011,19.9537,-43.9643,
1.6240,0.0131,-0.0626,1.0086,0.0167,-0.0235,0.0567,-0.0277,-0.0512,-0.0101,-2.1542,20.1627,-43.9112,
1.6450,0.0110,-0.0610,1.0392,0.0167,-0.0235,0.0567,-0.0277,-0.0512,-0.0101,-2.1542,20.1627,-43.9112,
1.6740,0.0110,-0.0610,1.0392,0.0167,-0.0235,0.0567,0.0056,-0.0421,-0.0140,-2.1542,20.1627,-43.9112,
1.6750,0.0055,-0.0503,1.0218,0.0167,-0.0235,0.0567,0.0056,-0.0421,-0.0140,-2.1542,20.1627,-43.9112,
1.6750,0.0037,-0.0329,1.0247,0.0167,-0.0235,0.0567,0.0056,-0.0421,-0.0140,-2.1542,20.1627,-43.9112,
1.6760,0.0037,-0.0329,1.0247,0.1163,-0.1133,-0.0628,0.0056,-0.0421,-0.0140,-2.1542,20.1627,-43.9112,
1.6910,0.0037,-0.0329,1.0247,0.1163,-0.1133,-0.0628,0.0056,-0.0421,-0.0140,-2.1951,20.3294,-43.8380,
1.7120,-0.0007,-0.0171,1.0294,0.1163,-0.1133,-0.0628,0.0056,-0.0421,-0.0140,-2.1951,20.3294,-43.8380,
1.7130,-0.0067,-0.0155,1.0327,0.1163,-0.1133,-0.0628,0.0056,-0.0421,-0.0140,-2.1951,20.3294,-43.8380,
1.7140,-0.0067,-0.0155,1.0327,0.1163,-0.1133,-0.0628,0.0065,-0.0454,-0.0018,-2.1951,20.3294,-43.8380,
1.7510,-0.0067,-0.0155,1.0327,0.1163,-0.1133,-0.0628,-0.0030,-0.0494,0.0190,-2.1951,20.3294,-43.8380,
1.7520,-0.0045,-0.0245,1.0376,0.1163,-0.1133,-0.0628,-0.0030,-0.0494,0.0190,-2.1951,20.3294,-43.8380,
1.7530,0.0011,-0.0338,1.0213,0.1163,-0.1133,-0.0628,-0.0030,-0.0494,0.0190,-2.1951,20.3294,-43.8380,
1.7540,0.0011,-0.0338,1.0213,0.0514,0.0058,0.0482,-0.0030,-0.0494,0.0190,-2.1951,20.3294,-43.8380,
1.7570,0.0011,-0.0338,1.0213,0.0514,0.0058,0.0482,-0.0030,-0.0494,0.0190,-2.2772,20.3952,-43.8111,
1.7790,0.0011,-0.0338,1.0213,0.0514,0.0058,0.0482,-0.0198,-0.0527,0.0190,-2.2772,20.3952,-43.8111,
1.7800,0.0103,-0.0430,1.0139,0.0514,0.0058,0.0482,-0.0198,-0.0527,0.0190,-2.2772,20.3952,-43.8111,
1.8080,0.0103,-0.0430,1.0139,0.0514,0.0058,0.0482,-0.0174,-0.0326,-0.0003,-2.2772,20.3952,-43.8111,
1.8090,0.0096,-0.0477,1.0339,0.0514,0.0058,0.0482,-0.0174,-0.0326,-0.0003,-2.2772,20.3952,-43.8111,
1.8100,-0.0026,-0.0485,1.0164,0.0514,0.0058,0.0482,-0.0174,-0.0326,-0.0003,-2.2772,20.3952,-43.8111,
1.8110,-0.0026,-0.0485,1.0164,-0.0525,0.1981,0.0559,-0.0174,-0.0326,-0.0003,-2.2772,20.3952,-43.8111,
1.8250,-0.0026,-0.0485,1.0164,-0.0525,0.1981,0.0559,-0.0174,-0.0326,-0.0003,-2.2951,20.5221,-43.7910,
1.8460,-0.0034,-0.0536,1.0052,-0.0525,0.1981,0.0559,-0.0174,-0.0326,-0.0003,-2.2951,20.5221,-43.7910,
1.8890,-0.0004,-0.0612,1.0299,-0.0525,0.1981,0.0559,-0.0174,-0.0326,-0.0003,-2.2951,20.5221,-43.7910,
1.8900,-0.0043,-0.0612,1.0319,-0.0525,0.1981,0.0559,-0.0174,-0.0326,-0.0003,-2.2951,20.5221,-43.7910,
1.8900,-0.0039,-0.0596,1.0111,-0.0525,0.1981,0.0559,-0.0174,-0.0326,-0.0003,-2.2951,20.5221,-43.7910,
1.8910,-0.0039,-0.0596,1.0111,-0.0525,0.1981,0.0559,-0.0171,-0.0036,0.0012,-2.2951,20.5221,-43.7910,
1.8920,-0.0039,-0.0596,1.0111,0.0128,-0.0242,-0.0606,-0.0171,-0.0036,0.0012,-2.2951,20.5221,-43.7910,
1.8920,-0.0039,-0.0596,1.0111,0.0128,-0.0242,-0.0606,-0.0064,-0.0130,-0.0085,-2.2951,20.5221,-43.7910,
1.8930,-0.0039,-0.0596,1.0111,0.0128,-0.0242,-0.0606,-0.0064,-0.0130,-0.0085,-2.3171,20.5705,-43.7759,
1.9120,0.0048,-0.0593,0.9960,0.0128,-0.0242,-0.0606,-0.0064,-0.0130,-0.0085,-2.3171,20.5705,-43.7759,
1.9470,0.0048,-0.0593,0.9960,0.0128,-0.0242,-0.0606,-0.0143,0.0193,-0.0119,-2.3171,20.5705,-43.7759,
1.9480,0.0115,-0.0635,1.0712,0.0128,-0.0242,-0.0606,-0.0143,0.0193,-0.0119,-2.3171,20.5705,-43.7759,
1.9520,0.0070,-0.0599,1.0264,0.0128,-0.0242,-0.0606,-0.0143,0.0193,-0.0119,-2.3171,20.5705,-43.7759,
1.9530,0.0070,-0.0599,1.0264,-0.0578,-0.1375,-0.0054,-0.0143,0.0193,-0.0119,-2.3171,20.5705,-43.7759,
1.9570,0.0070,-0.0599,1.0264,-0.0578,-0.1375,-0.0054,-0.0143,0.0193,-0.0119,-2.3401,20.6103,-43.7228,
1.9790,0.0041,-0.0513,0.9993,-0.0578,-0.1375,-0.0054,-0.0143,0.0193,-0.0119,-2.3401,20.6103,-43.7228,
1.9800,0.0041,-0.0513,0.9993,-0.0578,-0.1375,-0.0054,0.0309,-0.0518,-0.0107,-2.3401,20.6103,-43.7228,
2.0250,0.0041,-0.0513,0.9993,0.0323,-0.1270,0.0223,0.0309,-0.0518,-0.0107,-2.3401,20.6103,-43.7228,
2.0260,0.0041,-0.0513,0.9993,0.0323,-0.1270,0.0223,0.0184,-0.0002,-0.0052,-2.3401,20.6103,-43.7228,
2.0270,0.0087,-0.0450,1.0323,0.0323,-0.1270,0.0223,0.0184,-0.0002,-0.0052,-2.3401,20.6103,-43.7228,
2.0290,0.0122,-0.0392,1.0124,0.0323,-0.1270,0.0223,0.0184,-0.0002,-0.0052,-2.3401,20.6103,-43.7228,
2.0300,0.0144,-0.0359,1.0109,0.0323,-0.1270,0.0223,0.0184,-0.0002,-0.0052,-2.3401,20.6103,-43.7228,
2.0300,0.0144,-0.0359,1.0109,0.0323,-0.1270,0.0223,0.0184,-0.0002,-0.0052,-2.3643,20.6088,-43.7366,
2.0450,0.0083,-0.0344,1.0315,0.0323,-0.1270,0.0223,0.0184,-0.0002,-0.0052,-2.3643,20.6088,-43.7366,
2.0460,0.0083,-0.0344,1.0315,0.0323,-0.1270,0.0223,-0.0253,0.0090,-0.0036,-2.3643,20.6088,-43.7366,
2.0840,0.0083,-0.0344,1.0315,0.0323,-0.1270,0.0223,-0.0103,0.0059,-0.0061,-2.3643,20.6088,-43.7366,
2.0850,0.0084,-0.0410,1.0359,0.0323,-0.1270,0.0223,-0.0103,0.0059,-0.0061,-2.3643,20.6088,-43.7366,
2.0860,0.0084,-0.0410,1.0359,0.0655,0.0579,-0.0673,-0.0103,0.0059,-0.0061,-2.3643,20.6088,-43.7366,
2.0870,0.0048,-0.0445,1.0271,0.0655,0.0579,-0.0673,-0.0103,0.0059,-0.0061,-2.3643,20.6088,-43.7366,
2.0910,0.0048,-0.0445,1.0271,0.0655,0.0579,-0.0673,-0.0103,0.0059,-0.0061,-2.4002,20.6277,-43.7110,
2.1110,0.0012,-0.0466,1.0217,0.0655,0.0579,-0.0673,-0.0103,0.0059,-0.0061,-2.4002,20.6277,-43.7110,
2.1570,-0.0001,-0.0507,1.0241,0.0655,0.0579,-0.0673,-0.0103,0.0059,-0.0061,-2.4002,20.6277,-43.7110,
2.1580,-0.0007,-0.0526,1.0311,0.0655,0.0579,-0.0673,-0.0103,0.0059,-0.0061,-2.4002,20.6277,-43.7110,
2.1590,-0.0007,-0.0526,1.0311,0.0655,0.0579,-0.0673,-0.0054,0.0022,-0.0091,-2.4002,20.6277,-43.7110,
2.1590,-0.0007,-0.0526,1.0311,0.0655,0.0579,-0.0673,-0.0054,0.0022,-0.0091,-2.3880,20.6282,-43.7105,
2.1600,-0.0007,-0.0526,1.0311,0.0655,0.0579,-0.0673,-0.0070,-0.0060,-0.0061,-2.3880,20.6282,-43.7105,
2.1600,0.0013,-0.0555,1.0240,0.0655,0.0579,-0.0673,-0.0070,-0.0060,-0.0061,-2.3880,20.6282,-43.7105,
2.1610,0.0013,-0.0555,1.0240,0.0174,0.0609,0.0635,-0.0070,-0.0060,-0.0061,-2.3880,20.6282,-43.7105,
2.2200,0.0013,-0.0555,1.0240,0.0174,0.0609,0.0635,-0.0158,-0.0011,-0.0046,-2.3880,20.6282,-43.7105,
2.2210,0.0046,-0.0559,1.0118,0.0174,0.0609,0.0635,-0.0158,-0.0011,-0.0046,-2.3880,20.6282,-43.7105,
2.2210,0.0038,-0.0515,1.0405,0.0174,0.0609,0.0635,-0.0158,-0.0011,-0.0046,-2.3880,20.6282,-43.7105,
2.2220,0.0055,-0.0507,0.9988,0.0174,0.0609,0.0635,-0.0158,-0.0011,-0.0046,-2.3880,20.6282,-43.7105,
2.2230,0.0055,-0.0507,0.9988,-0.0394,-0.0311,0.0146,-0.0158,-0.0011,-0.0046,-2.3880,20.6282,-43.7105,
2.2240,0.0055,-0.0507,0.9988,-0.0394,-0.0311,0.0146,-0.0158,-0.0011,-0.0046,-2.4014,20.6194,-43.6602,
2.2460,0.0056,-0.0522,1.0282,-0.0394,-0.0311,0.0146,-0.0158,-0.0011,-0.0046,-2.4014,20.6194,-43.6602,
2.2470,0.0056,-0.0522,1.0282,-0.0394,-0.0311,0.0146,-0.0320,-0.0020,-0.0033,-2.4014,20.6194,-43.6602,
2.2910,0.0076,-0.0554,1.0505,-0.0394,-0.0311,0.0146,-0.0320,-0.0020,-0.0033,-2.4014,20.6194,-43.6602,
2.2920,0.0076,-0.0554,1.0505,-0.0394,-0.0311,0.0146,0.0110,-0.0127,-0.0052,-2.4014,20.6194,-43.6602,
2.2930,0.0067,-0.0533,1.0162,-0.0394,-0.0311,0.0146,0.0110,-0.0127,-0.0052,-2.4014,20.6194,-43.6602,
2.2930,0.0067,-0.0533,1.0162,-0.0394,-0.0311,0.0146,0.0110,-0.0127,-0.0052,-2.3619,20.6694,-43.6814,
2.2970,0.0067,-0.0533,1.0162,0.0023,-0.0340,-0.0540,0.0110,-0.0127,-0.0052,-2.3619,20.6694,-43.6814,
2.2980,0.0104,-0.0463,1.0282,0.0023,-0.0340,-0.0540,0.0110,-0.0127,-0.0052,-2.3619,20.6694,-43.6814,
2.3550,0.0104,-0.0463,1.0282,0.0257,-0.0255,0.0756,0.0110,-0.0127,-0.0052,-2.3619,20.6694,-43.6814,
2.3570,0.0074,-0.0408,1.0245,0.0257,-0.0255,0.0756,0.0110,-0.0127,-0.0052,-2.3619,20.6694,-43.6814,
2.3580,0.0074,-0.0408,1.0245,0.0257,-0.0255,0.0756,0.0071,-0.0008,-0.0049,-2.3619,20.6694,-43.6814,
2.3580,0.0071,-0.0432,1.0266,0.0257,-0.0255,0.0756,0.0071,-0.0008,-0.0049,-2.3619,20.6694,-43.6814,
2.3590,0.0043,-0.0470,1.0128,0.0257,-0.0255,0.0756,0.0071,-0.0008,-0.0049,-2.3619,20.6694,-43.6814,
2.3590,0.0043,-0.0470,1.0128,0.0257,-0.0255,0.0756,0.0083,0.0035,0.0003,-2.3619,20.6694,-43.6814,
2.3600,0.0043,-0.0470,1.0128,0.0257,-0.0255,0.0756,0.0083,0.0035,0.0003,-2.4499,20.6279,-43.6356,
2.3780,0.0043,-0.0492,1.0170,0.0257,-0.0255,0.0756,0.0083,0.0035,0.0003,-2.4499,20.6279,-43.6356,
2.4240,0.0043,-0.0492,1.0170,0.0257,-0.0255,0.0756,-0.0155,0.0053,0.0000,-2.4499,20.6279,-43.6356,
2.4250,0.0026,-0.0497,1.0319,0.0257,-0.0255,0.0756,-0.0155,0.0053,0.0000,-2.4499,20.6279,-43.6356,
2.4270,0.0028,-0.0521,1.0295,0.0257,-0.0255,0.0756,-0.0155,0.0053,0.0000,-2.4499,20.6279,-43.6356,
2.4290,0.0028,-0.0521,1.0295,0.0257,-0.0255,0.0756,-0.0155,0.0053,0.0000,-2.5243,20.6054,-43.6268,
2.4330,0.0028,-0.0521,1.0295,0.0257,-0.0255,0.0756,0.0159,0.0004,-0.0012,-2.5243,20.6054,-43.6268,
2.4340,0.0028,-0.0521,1.0295,0.0095,0.0396,-0.0399,0.0159,0.0004,-0.0012,-2.5243,20.6054,-43.6268,
2.4340,0.0039,-0.0527,1.0107,0.0095,0.0396,-0.0399,0.0159,0.0004,-0.0012,-2.5243,20.6054,-43.6268,
2.4910,0.0039,-0.0527,1.0107,0.0095,0.0396,-0.0399,-0.0088,0.0035,-0.0018,-2.5243,20.6054,-43.6268,
2.4920,0.0048,-0.0531,1.0263,0.0095,0.0396,-0.0399,-0.0088,0.0035,-0.0018,-2.5243,20.6054,-43.6268,
2.4930,0.0030,-0.0491,1.0308,0.0095,0.0396,-0.0399,-0.0088,0.0035,-0.0018,-2.5243,20.6054,-43.6268,
2.4940,0.0030,-0.0491,1.0308,0.0095,0.0396,-0.0399,-0.0088,0.0035,-0.0018,-2.5367,20.5942,-43.6536,
2.4960,0.0023,-0.0453,1.0174,0.0095,0.0396,-0.0399,-0.0088,0.0035,-0.0018,-2.5367,20.5942,-43.6536,
2.4960,0.0023,-0.0453,1.0174,-0.0120,-0.0141,0.0026,-0.0088,0.0035,-0.0018,-2.5367,20.5942,-43.6536,
2.5120,0.0023,-0.0453,1.0174,-0.0120,-0.0141,0.0026,-0.0280,0.0074,-0.0003,-2.5367,20.5942,-43.6536,
2.5130,0.0049,-0.0483,1.0017,-0.0120,-0.0141,0.0026,-0.0280,0.0074,-0.0003,-2.5367,20.5942,-43.6536,
2.5570,0.0098,-0.0586,1.0377,-0.0120,-0.0141,0.0026,-0.0280,0.0074,-0.0003,-2.5367,20.5942,-43.6536,
2.5580,0.0098,-0.0586,1.0377,-0.0120,-0.0141,0.0026,-0.0079,0.0282,-0.0067,-2.5367,20.5942,-43.6536,
2.5590,0.0054,-0.0591,1.0682,-0.0120,-0.0141,0.0026,-0.0079,0.0282,-0.0067,-2.5367,20.5942,-43.6536,
2.5590,0.0054,-0.0591,1.0682,-0.0120,-0.0141,0.0026,-0.0079,0.0282,-0.0067,-2.5356,20.6359,-43.5739,
2.5710,0.0054,-0.0591,1.0682,-0.0073,0.0086,-0.0098,-0.0079,0.0282,-0.0067,-2.5356,20.6359,-43.5739,
2.5720,0.0049,-0.0524,1.0074,-0.0073,0.0086,-0.0098,-0.0079,0.0282,-0.0067,-2.5356,20.6359,-43.5739,
2.6240,0.0049,-0.0524,1.0074,-0.0073,0.0086,-0.0098,0.0187,-0.0353,-0.0079,-2.5356,20.6359,-43.5739,
2.6260,0.0049,-0.0524,1.0074,-0.0073,0.0086,-0.0098,0.0187,-0.0353,-0.0079,-2.5719,20.6224,-43.6402,
2.6260,0.0010,-0.0493,1.0134,-0.0073,0.0086,-0.0098,0.0187,-0.0353,-0.0079,-2.5719,20.6224,-43.6402,
2.6270,0.0044,-0.0463,1.0446,-0.0073,0.0086,-0.0098,0.0187,-0.0353,-0.0079,-2.5719,20.6224,-43.6402,
2.6310,0.0073,-0.0399,1.0070,-0.0073,0.0086,-0.0098,0.0187,-0.0353,-0.0079,-2.5719,20.6224,-43.6402,
2.6320,0.0073,-0.0399,1.0070,-0.0073,0.0086,-0.0098,0.0224,0.0053,-0.0061,-2.5719,20.6224,-43.6402,
2.6320,0.0073,-0.0399,1.0070,0.0194,-0.0615,0.0684,0.0224,0.0053,-0.0061,-2.5719,20.6224,-43.6402,
2.6900,0.0073,-0.0399,1.0070,0.0194,-0.0615,0.0684,-0.0311,0.0117,-0.0015,-2.5719,20.6224,-43.6402,
2.6910,0.0073,-0.0399,1.0070,0.0194,-0.0615,0.0684,-0.0311,0.0117,-0.0015,-2.6452,20.6196,-43.6301,
2.6920,0.0061,-0.0395,1.0106,0.0194,-0.0615,0.0684,-0.0311,0.0117,-0.0015,-2.6452,20.6196,-43.6301,
2.6930,0.0045,-0.0403,1.0382,0.0194,-0.0615,0.0684,-0.0311,0.0117,-0.0015,-2.6452,20.6196,-43.6301,
2.6930,0.0061,-0.0488,1.0345,0.0194,-0.0615,0.0684,-0.0311,0.0117,-0.0015,-2.6452,20.6196,-43.6301,
2.7060,0.0061,-0.0488,1.0345,0.0194,-0.0615,0.0684,-0.0073,0.0080,0.0000,-2.6452,20.6196,-43.6301,
2.7080,0.0028,-0.0549,1.0221,0.0194,-0.0615,0.0684,-0.0073,0.0080,0.0000,-2.6452,20.6196,-43.6301,
2.7090,0.0028,-0.0549,1.0221,0.0068,0.0591,-0.0474,-0.0073,0.0080,0.0000,-2.6452,20.6196,-43.6301,
2.7580,0.0028,-0.0549,1.0221,0.0068,0.0591,-0.0474,-0.0094,0.0102,-0.0036,-2.6452,20.6196,-43.6301,
2.7590,0.0013,-0.0577,1.0214,0.0068,0.0591,-0.0474,-0.0094,0.0102,-0.0036,-2.6452,20.6196,-43.6301,
2.7600,0.0030,-0.0577,1.0263,0.0068,0.0591,-0.0474,-0.0094,0.0102,-0.0036,-2.6452,20.6196,-43.6301,
2.7600,0.0030,-0.0577,1.0263,0.0068,0.0591,-0.0474,-0.0094,0.0102,-0.0036,-2.6547,20.6677,-43.6403,
2.7650,0.0028,-0.0576,1.0284,0.0068,0.0591,-0.0474,-0.0094,0.0102,-0.0036,-2.6547,20.6677,-43.6403,
2.7660,0.0028,-0.0576,1.0284,0.0103,0.0339,0.0505,-0.0094,0.0102,-0.0036,-2.6547,20.6677,-43.6403,
2.8230,0.0028,-0.0576,1.0284,0.0103,0.0339,0.0505,-0.0033,0.0001,-0.0040,-2.6547,20.6677,-43.6403,
2.8240,0.0028,-0.0576,1.0284,0.0103,0.0339,0.0505,-0.0033,0.0001,-0.0040,-2.7399,20.6745,-43.6172,
2.8260,0.0028,-0.0576,1.0284,0.0103,0.0339,0.0505,-0.0021,-0.0033,-0.0027,-2.7399,20.6745,-43.6172,
2.8260,0.0017,-0.0553,1.0295,0.0103,0.0339,0.0505,-0.0021,-0.0033,-0.0027,-2.7399,20.6745,-43.6172,
2.8270,0.0046,-0.0536,1.0169,0.0103,0.0339,0.0505,-0.0021,-0.0033,-0.0027,-2.7399,20.6745,-43.6172,
2.8270,0.0030,-0.0486,1.0379,0.0103,0.0339,0.0505,-0.0021,-0.0033,-0.0027,-2.7399,20.6745,-43.6172,
2.8430,0.0030,-0.0486,1.0379,-0.0151,-0.0580,0.0174,-0.0021,-0.0033,-0.0027,-2.7399,20.6745,-43.6172,
2.8440,0.0045,-0.0503,0.9913,-0.0151,-0.0580,0.0174,-0.0021,-0.0033,-0.0027,-2.7399,20.6745,-43.6172,
2.8900,0.0084,-0.0533,1.0449,-0.0151,-0.0580,0.0174,-0.0021,-0.0033,-0.0027,-2.7399,20.6745,-43.6172,
2.8910,0.0084,-0.0533,1.0449,-0.0151,-0.0580,0.0174,-0.0287,0.0004,-0.0043,-2.7399,20.6745,-43.6172,
2.8920,0.0028,-0.0525,1.0448,-0.0151,-0.0580,0.0174,-0.0287,0.0004,-0.0043,-2.7399,20.6745,-43.6172,
2.8930,0.0028,-0.0525,1.0448,-0.0151,-0.0580,0.0174,-0.0287,0.0004,-0.0043,-2.7514,20.6944,-43.5907,
2.9020,0.0028,-0.0525,1.0448,-0.0151,-0.0580,0.0174,0.0251,-0.0103,-0.0064,-2.7514,20.6944,-43.5907,
2.9020,0.0029,-0.0463,1.0185,-0.0151,-0.0580,0.0174,0.0251,-0.0103,-0.0064,-2.7514,20.6944,-43.5907,
2.9030,0.0029,-0.0463,1.0185,-0.0026,-0.0023,-0.0680,0.0251,-0.0103,-0.0064,-2.7514,20.6944,-43.5907,
2.9570,0.0029,-0.0463,1.0185,-0.0026,-0.0023,-0.0680,0.0028,-0.0036,0.0015,-2.7514,20.6944,-43.5907,
2.9580,0.0054,-0.0433,1.0200,-0.0026,-0.0023,-0.0680,0.0028,-0.0036,0.0015,-2.7514,20.6944,-43.5907,
2.9590,0.0054,-0.0433,1.0200,-0.0026,-0.0023,-0.0680,0.0028,-0.0036,0.0015,-2.7256,20.7144,-43.6142,
2.9600,0.0070,-0.0421,1.0290,-0.0026,-0.0023,-0.0680,0.0028,-0.0036,0.0015,-2.7256,20.7144,-43.6142,
2.9780,0.0073,-0.0466,1.0257,-0.0026,-0.0023,-0.0680,0.0028,-0.0036,0.0015,-2.7256,20.7144,-43.6142,
2.9790,0.0032,-0.0497,1.0272,-0.0026,-0.0023,-0.0680,0.0028,-0.0036,0.0015,-2.7256,20.7144,-43.6142,
2.9800,0.0032,-0.0497,1.0272,-0.0026,-0.0023,-0.0680,0.0001,-0.0011,0.0037,-2.7256,20.7144,-43.6142,
2.9810,0.0032,-0.0497,1.0272,0.0052,0.0137,0.0816,0.0001,-0.0011,0.0037,-2.7256,20.7144,-43.6142,
3.0240,0.0032,-0.0497,1.0272,0.0052,0.0137,0.0816,-0.0045,-0.0017,0.0022,-2.7256,20.7144,-43.6142,
3.0250,0.0023,-0.0529,1.0100,0.0052,0.0137,0.0816,-0.0045,-0.0017,0.0022,-2.7256,20.7144,-43.6142,
3.0260,0.0034,-0.0558,1.0219,0.0052,0.0137,0.0816,-0.0045,-0.0017,0.0022,-2.7256,20.7144,-43.6142,
3.0270,0.0034,-0.0558,1.0219,0.0052,0.0137,0.0816,-0.0045,-0.0017,0.0022,-2.7353,20.7629,-43.6115,
3.0390,0.0041,-0.0562,1.0316,0.0052,0.0137,0.0816,-0.0045,-0.0017,0.0022,-2.7353,20.7629,-43.6115,
3.0410,0.0041,-0.0562,1.0316,0.0146,0.0468,0.0169,-0.0045,-0.0017,0.0022,-2.7353,20.7629,-43.6115,
3.0900,0.0041,-0.0562,1.0316,0.0146,0.0468,0.0169,0.0068,0.0016,-0.0030,-2.7353,20.7629,-43.6115,
3.0910,0.0037,-0.0552,1.0207,0.0146,0.0468,0.0169,0.0068,0.0016,-0.0030,-2.7353,20.7629,-43.6115,
3.0920,0.0044,-0.0542,1.0179,0.0146,0.0468,0.0169,0.0068,0.0016,-0.0030,-2.7353,20.7629,-43.6115,
3.0920,0.0044,-0.0542,1.0179,0.0146,0.0468,0.0169,0.0068,0.0016,-0.0030,-2.7344,20.7719,-43.6366,
3.1120,0.0032,-0.0548,1.0150,0.0146,0.0468,0.0169,0.0068,0.0016,-0.0030,-2.7344,20.7719,-43.6366,
3.1130,0.0032,-0.0548,1.0150,0.0146,0.0468,0.0169,-0.0033,0.0059,-0.0021,-2.7344,20.7719,-43.6366,
3.1160,0.0021,-0.0540,1.0328,0.0146,0.0468,0.0169,-0.0033,0.0059,-0.0021,-2.7344,20.7719,-43.6366,
3.1170,0.0021,-0.0540,1.0328,-0.0047,-0.0371,-0.0326,-0.0033,0.0059,-0.0021,-2.7344,20.7719,-43.6366,
3.1570,0.0027,-0.0515,1.0384,-0.0047,-0.0371,-0.0326,-0.0033,0.0059,-0.0021,-2.7344,20.7719,-43.6366,
3.1590,0.0027,-0.0515,1.0384,-0.0047,-0.0371,-0.0326,-0.0033,0.0047,-0.0021,-2.7344,20.7719,-43.6366,
3.1590,0.0027,-0.0515,1.0384,-0.0047,-0.0371,-0.0326,-0.0033,0.0047,-0.0021,-2.7463,20.7926,-43.5844,
3.1600,0.0026,-0.0491,1.0123,-0.0047,-0.0371,-0.0326,-0.0033,0.0047,-0.0021,-2.7463,20.7926,-43.5844,
3.1760,0.0026,-0.0491,1.0123,-0.0047,-0.0371,-0.0326,-0.0109,0.0019,-0.0036,-2.7463,20.7926,-43.5844,
3.1760,0.0026,-0.0491,1.0123,0.0005,-0.0208,-0.0274,-0.0109,0.0019,-0.0036,-2.7463,20.7926,-43.5844,
3.1770,0.0004,-0.0477,0.9938,0.0005,-0.0208,-0.0274,-0.0109,0.0019,-0.0036,-2.7463,20.7926,-43.5844,
3.2230,0.0004,-0.0477,0.9938,0.0005,-0.0208,-0.0274,-0.0116,0.0331,-0.0043,-2.7463,20.7926,-43.5844,
3.2240,0.0004,-0.0477,0.9938,0.0005,-0.0208,-0.0274,-0.0116,0.0331,-0.0043,-2.7074,20.8442,-43.5541,
3.2250,0.0081,-0.0562,1.0330,0.0005,-0.0208,-0.0274,-0.0116,0.0331,-0.0043,-2.7074,20.8442,-43.5541,
3.2260,0.0028,-0.0582,1.0671,0.0005,-0.0208,-0.0274,-0.0116,0.0331,-0.0043,-2.7074,20.8442,-43.5541,
3.2440,0.0012,-0.0520,1.0030,0.0005,-0.0208,-0.0274,-0.0116,0.0331,-0.0043,-2.7074,20.8442,-43.5541,
3.2560,0.0010,-0.0513,1.0135,0.0005,-0.0208,-0.0274,-0.0116,0.0331,-0.0043,-2.7074,20.8442,-43.5541,
3.2570,0.0010,-0.0513,1.0135,0.0005,-0.0208,-0.0274,0.0110,-0.0359,-0.0073,-2.7074,20.8442,-43.5541,
3.2580,0.0010,-0.0513,1.0135,-0.0133,0.0156,-0.1133,0.0110,-0.0359,-0.0073,-2.7074,20.8442,-43.5541,
3.2900,0.0033,-0.0496,1.0411,-0.0133,0.0156,-0.1133,0.0110,-0.0359,-0.0073,-2.7074,20.8442,-43.5541,
3.2910,0.0033,-0.0496,1.0411,-0.0133,0.0156,-0.1133,0.0110,-0.0359,-0.0073,-2.6229,20.8389,-43.5258,
3.3120,0.0033,-0.0496,1.0411,-0.0083,-0.0269,0.1038,0.0110,-0.0359,-0.0073,-2.6229,20.8389,-43.5258,
3.3140,0.0033,-0.0496,1.0411,-0.0083,-0.0269,0.1038,0.0224,-0.0048,-0.0064,-2.6229,20.8389,-43.5258,
3.3140,0.0066,-0.0422,1.0040,-0.0083,-0.0269,0.1038,0.0224,-0.0048,-0.0064,-2.6229,20.8389,-43.5258,
3.3150,0.0065,-0.0402,1.0162,-0.0083,-0.0269,0.1038,0.0224,-0.0048,-0.0064,-2.6229,20.8389,-43.5258,
3.3570,0.0065,-0.0402,1.0162,-0.0083,-0.0269,0.1038,-0.0274,0.0071,-0.0046,-2.6229,20.8389,-43.5258,
3.3580,0.0073,-0.0438,1.0290,-0.0083,-0.0269,0.1038,-0.0274,0.0071,-0.0046,-2.6229,20.8389,-43.5258,
3.3600,0.0073,-0.0527,1.0372,-0.0083,-0.0269,0.1038,-0.0274,0.0071,-0.0046,-2.6229,20.8389,-43.5258,
3.3600,0.0073,-0.0527,1.0372,-0.0083,-0.0269,0.1038,-0.0274,0.0071,-0.0046,-2.5246,20.8637,-43.4951,
3.3790,0.0037,-0.0588,1.0261,-0.0083,-0.0269,0.1038,-0.0274,0.0071,-0.0046,-2.5246,20.8637,-43.4951,
3.3810,0.0037,-0.0588,1.0261,-0.0083,-0.0269,0.1038,-0.0036,0.0080,-0.0033,-2.5246,20.8637,-43.4951,
3.3890,0.0001,-0.0603,1.0213,-0.0083,-0.0269,0.1038,-0.0036,0.0080,-0.0033,-2.5246,20.8637,-43.4951,
3.3900,0.0001,-0.0603,1.0213,0.0221,0.0712,-0.0295,-0.0036,0.0080,-0.0033,-2.5246,20.8637,-43.4951,
3.4240,0.0001,-0.0603,1.0213,0.0221,0.0712,-0.0295,0.0016,0.0010,-0.0040,-2.5246,20.8637,-43.4951,
3.4250,-0.0000,-0.0586,1.0210,0.0221,0.0712,-0.0295,0.0016,0.0010,-0.0040,-2.5246,20.8637,-43.4951,
3.4260,-0.0000,-0.0586,1.0210,0.0221,0.0712,-0.0295,0.0016,0.0010,-0.0040,-2.4623,20.8853,-43.5173,
3.4450,0.0016,-0.0563,1.0253,0.0221,0.0712,-0.0295,0.0016,0.0010,-0.0040,-2.4623,20.8853,-43.5173,
3.4480,0.0016,-0.0563,1.0253,0.0221,0.0712,-0.0295,-0.0045,-0.0020,-0.0027,-2.4623,20.8853,-43.5173,
3.4480,0.0028,-0.0557,1.0266,0.0221,0.0712,-0.0295,-0.0045,-0.0020,-0.0027,-2.4623,20.8853,-43.5173,
3.4490,0.0028,-0.0557,1.0266,0.0038,-0.0328,0.0472,-0.0045,-0.0020,-0.0027,-2.4623,20.8853,-43.5173,
3.4920,0.0032,-0.0540,1.0137,0.0038,-0.0328,0.0472,-0.0045,-0.0020,-0.0027,-2.4623,20.8853,-43.5173,
3.4940,0.0032,-0.0540,1.0137,0.0038,-0.0328,0.0472,-0.0045,-0.0020,-0.0027,-2.4218,20.9659,-43.4980,
3.4950,0.0026,-0.0509,1.0330,0.0038,-0.0328,0.0472,-0.0045,-0.0020,-0.0027,-2.4218,20.9659,-43.4980,
3.4960,0.0026,-0.0509,1.0330,0.0038,-0.0328,0.0472,-0.0131,-0.0033,-0.0033,-2.4218,20.9659,-43.4980,
3.5130,0.0017,-0.0500,0.9963,0.0038,-0.0328,0.0472,-0.0131,-0.0033,-0.0033,-2.4218,20.9659,-43.4980,
3.5270,0.0017,-0.0500,0.9963,0.0038,-0.0328,0.0472,-0.0293,0.0035,-0.0024,-2.4218,20.9659,-43.4980,
3.5290,0.0074,-0.0535,1.0420,0.0038,-0.0328,0.0472,-0.0293,0.0035,-0.0024,-2.4218,20.9659,-43.4980,
3.5290,0.0074,-0.0535,1.0420,-0.0179,-0.0255,-0.0093,-0.0293,0.0035,-0.0024,-2.4218,20.9659,-43.4980,
3.5580,0.0040,-0.0542,1.0359,-0.0179,-0.0255,-0.0093,-0.0293,0.0035,-0.0024,-2.4218,20.9659,-43.4980,
3.5590,0.0040,-0.0542,1.0359,-0.0179,-0.0255,-0.0093,-0.0293,0.0035,-0.0024,-2.4563,21.0035,-43.4969,
3.5790,0.0016,-0.0520,1.0141,-0.0179,-0.0255,-0.0093,-0.0293,0.0035,-0.0024,-2.4563,21.0035,-43.4969,
3.5800,0.0016,-0.0520,1.0141,-0.0179,-0.0255,-0.0093,0.0107,-0.0048,-0.0073,-2.4563,21.0035,-43.4969,
3.5850,0.0016,-0.0520,1.0141,0.0013,0.0194,-0.0199,0.0107,-0.0048,-0.0073,-2.4563,21.0035,-43.4969,
3.5860,0.0010,-0.0483,1.0169,0.0013,0.0194,-0.0199,0.0107,-0.0048,-0.0073,-2.4563,21.0035,-43.4969,
3.6250,0.0010,-0.0483,1.0169,0.0013,0.0194,-0.0199,-0.0137,-0.0005,-0.0033,-2.4563,21.0035,-43.4969,
3.6260,0.0055,-0.0475,1.0288,0.0013,0.0194,-0.0199,-0.0137,-0.0005,-0.0033,-2.4563,21.0035,-43.4969,
3.6270,0.0067,-0.0492,1.0363,0.0013,0.0194,-0.0199,-0.0137,-0.0005,-0.0033,-2.4563,21.0035,-43.4969,
3.6280,0.0067,-0.0492,1.0363,0.0013,0.0194,-0.0199,-0.0137,-0.0005,-0.0033,-2.4333,20.9858,-43.4715,
3.6460,0.0022,-0.0541,1.0286,0.0013,0.0194,-0.0199,-0.0137,-0.0005,-0.0033,-2.4333,20.9858,-43.4715,
3.6480,0.0022,-0.0541,1.0286,0.0013,0.0194,-0.0199,0.0043,-0.0011,-0.0027,-2.4333,20.9858,-43.4715,
3.6630,0.0026,-0.0562,1.0161,0.0013,0.0194,-0.0199,0.0043,-0.0011,-0.0027,-2.4333,20.9858,-43.4715,
3.6650,0.0026,-0.0562,1.0161,-0.0122,0.0215,-0.0107,0.0043,-0.0011,-0.0027,-2.4333,20.9858,-43.4715,
3.6910,0.0043,-0.0560,1.0188,-0.0122,0.0215,-0.0107,0.0043,-0.0011,-0.0027,-2.4333,20.9858,-43.4715,
3.6930,0.0043,-0.0560,1.0188,-0.0122,0.0215,-0.0107,0.0043,-0.0011,-0.0027,-2.3711,21.0077,-43.4808,
3.6940,0.0043,-0.0560,1.0188,-0.0122,0.0215,-0.0107,0.0010,-0.0023,-0.0036,-2.3711,21.0077,-43.4808,
3.7120,0.0043,-0.0579,1.0266,-0.0122,0.0215,-0.0107,0.0010,-0.0023,-0.0036,-2.3711,21.0077,-43.4808,
3.7240,0.0033,-0.0577,1.0286,-0.0122,0.0215,-0.0107,0.0010,-0.0023,-0.0036,-2.3711,21.0077,-43.4808,
3.7260,0.0033,-0.0577,1.0286,-0.0122,0.0215,-0.0107,0.0049,0.0068,-0.0043,-2.3711,21.0077,-43.4808,
3.7260,0.0033,-0.0577,1.0286,0.0066,0.0065,0.0347,0.0049,0.0068,-0.0043,-2.3711,21.0077,-43.4808,
3.7580,0.0030,-0.0563,1.0141,0.0066,0.0065,0.0347,0.0049,0.0068,-0.0043,-2.3711,21.0077,-43.4808,
3.7590,0.0030,-0.0563,1.0141,0.0066,0.0065,0.0347,0.0049,0.0068,-0.0043,-2.3345,21.0093,-43.4794,
3.7790,0.0019,-0.0548,1.0296,0.0066,0.0065,0.0347,0.0049,0.0068,-0.0043,-2.3345,21.0093,-43.4794,
3.7810,0.0019,-0.0548,1.0296,0.0066,0.0065,0.0347,0.0114,0.0102,-0.0033,-2.3345,21.0093,-43.4794,
3.8000,0.0019,-0.0548,1.0296,0.0066,0.0065,0.0347,0.0205,0.0071,-0.0030,-2.3345,21.0093,-43.4794,
3.8010,0.0016,-0.0522,1.0274,0.0066,0.0065,0.0347,0.0205,0.0071,-0.0030,-2.3345,21.0093,-43.4794,
3.8020,0.0011,-0.0522,1.0235,0.0066,0.0065,0.0347,0.0205,0.0071,-0.0030,-2.3345,21.0093,-43.4794,
3.8020,0.0011,-0.0522,1.0235,0.0094,-0.0468,-0.0095,0.0205,0.0071,-0.0030,-2.3345,21.0093,-43.4794,
3.8250,0.0011,-0.0522,1.0235,0.0094,-0.0468,-0.0095,0.0205,0.0071,-0.0030,-2.3452,21.0272,-43.5172,
3.8260,0.0019,-0.0515,1.0250,0.0094,-0.0468,-0.0095,0.0205,0.0071,-0.0030,-2.3452,21.0272,-43.5172,
3.8450,0.0019,-0.0515,1.0250,0.0094,-0.0468,-0.0095,0.0138,0.0102,-0.0040,-2.3452,21.0272,-43.5172,
3.8460,0.0026,-0.0497,1.0266,0.0094,-0.0468,-0.0095,0.0138,0.0102,-0.0040,-2.3452,21.0272,-43.5172,
3.8580,0.0026,-0.0497,1.0266,-0.0068,-0.0172,0.0064,0.0138,0.0102,-0.0040,-2.3452,21.0272,-43.5172,
3.8600,0.0028,-0.0504,1.0212,-0.0068,-0.0172,0.0064,0.0138,0.0102,-0.0040,-2.3452,21.0272,-43.5172,
3.8900,0.0024,-0.0500,1.0321,-0.0068,-0.0172,0.0064,0.0138,0.0102,-0.0040,-2.3452,21.0272,-43.5172,
3.8920,0.0024,-0.0500,1.0321,-0.0068,-0.0172,0.0064,0.0123,0.0053,-0.0015,-2.3452,21.0272,-43.5172,
3.8930,0.0024,-0.0500,1.0321,-0.0068,-0.0172,0.0064,0.0123,0.0053,-0.0015,-2.3439,21.0350,-43.5809,
3.9120,0.0001,-0.0469,1.0307,-0.0068,-0.0172,0.0064,0.0123,0.0053,-0.0015,-2.3439,21.0350,-43.5809,
3.9370,0.0001,-0.0469,1.0307,-0.0068,-0.0172,0.0064,0.0269,-0.0039,0.0012,-2.3439,21.0350,-43.5809,
3.9390,-0.0004,-0.0470,1.0029,-0.0068,-0.0172,0.0064,0.0269,-0.0039,0.0012,-2.3439,21.0350,-43.5809,
3.9390,0.0030,-0.0508,0.9886,-0.0068,-0.0172,0.0064,0.0269,-0.0039,0.0012,-2.3439,21.0350,-43.5809,
3.9400,0.0030,-0.0508,0.9886,0.0078,0.0005,0.0055,0.0269,-0.0039,0.0012,-2.3439,21.0350,-43.5809,
3.9580,0.0030,-0.0508,0.9886,0.0078,0.0005,0.0055,-0.0051,0.0523,-0.0006,-2.3439,21.0350,-43.5809,
3.9590,0.0030,-0.0508,0.9886,0.0078,0.0005,0.0055,-0.0051,0.0523,-0.0006,-2.3552,21.0545,-43.5672,
3.9600,0.0067,-0.0581,1.0791,0.0078,0.0005,0.0055,-0.0051,0.0523,-0.0006,-2.3552,21.0545,-43.5672,
3.9790,-0.0035,-0.0540,1.0330,0.0078,0.0005,0.0055,-0.0051,0.0523,-0.0006,-2.3552,21.0545,-43.5672,
3.9940,-0.0035,-0.0540,1.0330,-0.0054,0.0053,-0.1153,-0.0051,0.0523,-0.0006,-2.3552,21.0545,-43.5672,
3.9960,-0.0035,-0.0540,1.0330,-0.0054,0.0053,-0.1153,0.0416,-0.0314,-0.0012,-2.3552,21.0545,-43.5672,
3.9960,-0.0021,-0.0520,0.9979,-0.0054,0.0053,-0.1153,0.0416,-0.0314,-0.0012,-2.3552,21.0545,-43.5672,
4.0240,0.0011,-0.0548,1.0379,-0.0054,0.0053,-0.1153,0.0416,-0.0314,-0.0012,-2.3552,21.0545,-43.5672,
4.0260,0.0011,-0.0548,1.0379,-0.0054,0.0053,-0.1153,0.0416,-0.0314,-0.0012,-2.3834,20.9851,-43.5597,
4.0460,0.0011,-0.0548,1.0379,-0.0054,0.0053,-0.1153,0.0349,-0.0048,0.0000,-2.3834,20.9851,-43.5597,
4.0470,0.0041,-0.0507,1.0338,-0.0054,0.0053,-0.1153,0.0349,-0.0048,0.0000,-2.3834,20.9851,-43.5597,
4.0730,0.0041,-0.0507,1.0338,-0.0054,0.0053,-0.1153,0.0291,-0.0005,-0.0079,-2.3834,20.9851,-43.5597,
4.0750,0.0021,-0.0404,1.0086,-0.0054,0.0053,-0.1153,0.0291,-0.0005,-0.0079,-2.3834,20.9851,-43.5597,
4.0750,0.0016,-0.0334,1.0223,-0.0054,0.0053,-0.1153,0.0291,-0.0005,-0.0079,-2.3834,20.9851,-43.5597,
4.0760,0.0016,-0.0334,1.0223,-0.0141,-0.0718,0.1029,0.0291,-0.0005,-0.0079,-2.3834,20.9851,-43.5597,
4.0910,0.0016,-0.0334,1.0223,-0.0141,-0.0718,0.1029,0.0291,-0.0005,-0.0079,-2.3495,20.9270,-43.5878,
4.1120,0.0016,-0.0334,1.0223,-0.0141,-0.0718,0.1029,0.0046,0.0062,-0.0009,-2.3495,20.9270,-43.5878,
4.1130,0.0045,-0.0351,1.0304,-0.0141,-0.0718,0.1029,0.0046,0.0062,-0.0009,-2.3495,20.9270,-43.5878,
4.1140,0.0023,-0.0424,1.0278,-0.0141,-0.0718,0.1029,0.0046,0.0062,-0.0009,-2.3495,20.9270,-43.5878,
4.1320,-0.0026,-0.0505,1.0224,-0.0141,-0.0718,0.1029,0.0046,0.0062,-0.0009,-2.3495,20.9270,-43.5878,
4.1330,-0.0026,-0.0505,1.0224,0.0111,0.0272,0.0109,0.0046,0.0062,-0.0009,-2.3495,20.9270,-43.5878,
4.1580,-0.0039,-0.0536,1.0264,0.0111,0.0272,0.0109,0.0046,0.0062,-0.0009,-2.3495,20.9270,-43.5878,
4.1590,-0.0039,-0.0536,1.0264,0.0111,0.0272,0.0109,0.0181,0.0013,-0.0012,-2.3495,20.9270,-43.5878,
4.1590,-0.0039,-0.0536,1.0264,0.0111,0.0272,0.0109,0.0181,0.0013,-0.0012,-2.3365,20.9256,-43.6517,
4.1780,-0.0009,-0.0502,1.0260,0.0111,0.0272,0.0109,0.0181,0.0013,-0.0012,-2.3365,20.9256,-43.6517,
4.2110,-0.0009,-0.0502,1.0260,0.0111,0.0272,0.0109,0.0126,-0.0075,-0.0009,-2.3365,20.9256,-43.6517,
4.2140,0.0012,-0.0470,1.0269,0.0111,0.0272,0.0109,0.0126,-0.0075,-0.0009,-2.3365,20.9256,-43.6517,
4.2150,0.0021,-0.0459,1.0334,0.0111,0.0272,0.0109,0.0126,-0.0075,-0.0009,-2.3365,20.9256,-43.6517,
4.2150,0.0021,-0.0459,1.0334,-0.0129,0.0089,0.0182,0.0126,-0.0075,-0.0009,-2.3365,20.9256,-43.6517,
4.2230,0.0021,-0.0459,1.0334,-0.0129,0.0089,0.0182,0.0126,-0.0075,-0.0009,-2.3633,20.8750,-43.6686,
4.2450,0.0035,-0.0445,1.0161,-0.0129,0.0089,0.0182,0.0126,-0.0075,-0.0009,-2.3633,20.8750,-43.6686,
4.2470,0.0035,-0.0445,1.0161,-0.0129,0.0089,0.0182,0.0178,-0.0121,-0.0018,-2.3633,20.8750,-43.6686,
4.2680,0.0021,-0.0441,1.0253,-0.0129,0.0089,0.0182,0.0178,-0.0121,-0.0018,-2.3633,20.8750,-43.6686,
4.2690,0.0021,-0.0441,1.0253,-0.0129,0.0089,0.0182,-0.0015,-0.0039,-0.0006,-2.3633,20.8750,-43.6686,
4.2700,0.0012,-0.0433,0.9915,-0.0129,0.0089,0.0182,-0.0015,-0.0039,-0.0006,-2.3633,20.8750,-43.6686,
4.2700,0.0012,-0.0433,0.9915,-0.0170,-0.0293,0.0308,-0.0015,-0.0039,-0.0006,-2.3633,20.8750,-43.6686,
4.2910,0.0051,-0.0472,1.0574,-0.0170,-0.0293,0.0308,-0.0015,-0.0039,-0.0006,-2.3633,20.8750,-43.6686,
4.2920,0.0051,-0.0472,1.0574,-0.0170,-0.0293,0.0308,-0.0015,-0.0039,-0.0006,-2.4388,20.8108,-43.7395,
4.3120,0.0013,-0.0416,1.0217,-0.0170,-0.0293,0.0308,-0.0015,-0.0039,-0.0006,-2.4388,20.8108,-43.7395,
4.3130,0.0013,-0.0416,1.0217,-0.0170,-0.0293,0.0308,-0.0027,0.0001,-0.0030,-2.4388,20.8108,-43.7395,
4.3470,0.0013,-0.0416,1.0217,0.0055,0.0035,-0.0668,-0.0027,0.0001,-0.0030,-2.4388,20.8108,-43.7395,
4.3490,0.0013,-0.0416,1.0217,0.0055,0.0035,-0.0668,0.0086,-0.0036,0.0006,-2.4388,20.8108,-43.7395,
4.3500,0.0009,-0.0351,1.0228,0.0055,0.0035,-0.0668,0.0086,-0.0036,0.0006,-2.4388,20.8108,-43.7395,
4.3500,0.0010,-0.0325,1.0235,0.0055,0.0035,-0.0668,0.0086,-0.0036,0.0006,-2.4388,20.8108,-43.7395,
4.3570,0.0010,-0.0325,1.0235,0.0055,0.0035,-0.0668,0.0086,-0.0036,0.0006,-2.5059,20.7013,-43.7101,
4.3790,0.0044,-0.0355,1.0315,0.0055,0.0035,-0.0668,0.0086,-0.0036,0.0006,-2.5059,20.7013,-43.7101,
4.4050,0.0044,-0.0355,1.0315,0.0055,0.0035,-0.0668,-0.0174,0.0001,0.0067,-2.5059,20.7013,-43.7101,
4.4060,0.0067,-0.0428,1.0403,0.0055,0.0035,-0.0668,-0.0174,0.0001,0.0067,-2.5059,20.7013,-43.7101,
4.4070,0.0001,-0.0487,1.0383,0.0055,0.0035,-0.0668,-0.0174,0.0001,0.0067,-2.5059,20.7013,-43.7101,
4.4080,0.0001,-0.0487,1.0383,-0.0102,0.0653,0.0268,-0.0174,0.0001,0.0067,-2.5059,20.7013,-43.7101,
4.4240,0.0001,-0.0487,1.0383,-0.0102,0.0653,0.0268,0.0056,-0.0127,0.0031,-2.5059,20.7013,-43.7101,
4.4260,-0.0015,-0.0485,1.0117,-0.0102,0.0653,0.0268,0.0056,-0.0127,0.0031,-2.5059,20.7013,-43.7101,
4.4270,-0.0015,-0.0485,1.0117,-0.0102,0.0653,0.0268,0.0056,-0.0127,0.0031,-2.4962,20.6638,-43.6736,
4.4450,0.0021,-0.0487,1.0238,-0.0102,0.0653,0.0268,0.0056,-0.0127,0.0031,-2.4962,20.6638,-43.6736,
4.4830,0.0022,-0.0486,1.0294,-0.0102,0.0653,0.0268,0.0056,-0.0127,0.0031,-2.4962,20.6638,-43.6736,
4.4850,0.0019,-0.0466,1.0228,-0.0102,0.0653,0.0268,0.0056,-0.0127,0.0031,-2.4962,20.6638,-43.6736,
4.4860,0.0019,-0.0466,1.0228,-0.0102,0.0653,0.0268,-0.0012,-0.0023,0.0034,-2.4962,20.6638,-43.6736,
4.4860,0.0019,-0.0466,1.0228,-0.0003,0.0083,0.0724,-0.0012,-0.0023,0.0034,-2.4962,20.6638,-43.6736,
4.4900,0.0019,-0.0466,1.0228,-0.0003,0.0083,0.0724,-0.0012,-0.0023,0.0034,-2.4756,20.5965,-43.6642,
4.5120,0.0027,-0.0453,1.0212,-0.0003,0.0083,0.0724,-0.0012,-0.0023,0.0034,-2.4756,20.5965,-43.6642,
4.5130,0.0027,-0.0453,1.0212,-0.0003,0.0083,0.0724,0.0104,0.0001,0.0019,-2.4756,20.5965,-43.6642,
4.5420,0.0018,-0.0454,1.0305,-0.0003,0.0083,0.0724,0.0104,0.0001,0.0019,-2.4756,20.5965,-43.6642,
4.5430,0.0018,-0.0454,1.0305,-0.0003,0.0083,0.0724,0.0059,0.0035,0.0040,-2.4756,20.5965,-43.6642,
4.5430,0.0005,-0.0452,1.0240,-0.0003,0.0083,0.0724,0.0059,0.0035,0.0040,-2.4756,20.5965,-43.6642,
4.5440,0.0005,-0.0452,1.0240,-0.0071,-0.0363,-0.0212,0.0059,0.0035,0.0040,-2.4756,20.5965,-43.6642,
4.5570,0.0005,-0.0452,1.0240,-0.0071,-0.0363,-0.0212,0.0059,0.0035,0.0040,-2.4776,20.5462,-43.7059,
4.5780,0.0009,-0.0425,1.0267,-0.0071,-0.0363,-0.0212,0.0059,0.0035,0.0040,-2.4776,20.5462,-43.7059,
4.6200,0.0009,-0.0425,1.0267,-0.0098,-0.0065,-0.0040,0.0059,0.0035,0.0040,-2.4776,20.5462,-43.7059,
4.6210,0.0010,-0.0404,1.0291,-0.0098,-0.0065,-0.0040,0.0059,0.0035,0.0040,-2.4776,20.5462,-43.7059,
4.6220,0.0029,-0.0411,1.0242,-0.0098,-0.0065,-0.0040,0.0059,0.0035,0.0040,-2.4776,20.5462,-43.7059,
4.6230,0.0052,-0.0415,1.0251,-0.0098,-0.0065,-0.0040,0.0059,0.0035,0.0040,-2.4776,20.5462,-43.7059,
4.6230,0.0052,-0.0415,1.0251,-0.0098,-0.0065,-0.0040,0.0022,-0.0017,0.0040,-2.4776,20.5462,-43.7059,
4.6230,0.0052,-0.0415,1.0251,-0.0098,-0.0065,-0.0040,0.0016,-0.0042,0.0040,-2.4776,20.5462,-43.7059,
4.6240,0.0052,-0.0415,1.0251,-0.0098,-0.0065,-0.0040,0.0016,-0.0042,0.0040,-2.4568,20.4896,-43.6702,
4.6450,0.0048,-0.0427,1.0227,-0.0098,-0.0065,-0.0040,0.0016,-0.0042,0.0040,-2.4568,20.4896,-43.6702,
4.6800,0.0029,-0.0456,1.0286,-0.0098,-0.0065,-0.0040,0.0016,-0.0042,0.0040,-2.4568,20.4896,-43.6702,
4.6820,0.0029,-0.0456,1.0286,-0.0098,-0.0065,-0.0040,-0.0027,0.0035,0.0049,-2.4568,20.4896,-43.6702,
4.6830,0.0011,-0.0445,1.0178,-0.0098,-0.0065,-0.0040,-0.0027,0.0035,0.0049,-2.4568,20.4896,-43.6702,
4.6840,0.0011,-0.0445,1.0178,0.0024,0.0280,0.0105,-0.0027,0.0035,0.0049,-2.4568,20.4896,-43.6702,
4.6900,0.0011,-0.0445,1.0178,0.0024,0.0280,0.0105,-0.0027,0.0035,0.0049,-2.4206,20.4810,-43.6823,
4.7120,0.0010,-0.0465,1.0271,0.0024,0.0280,0.0105,-0.0027,0.0035,0.0049,-2.4206,20.4810,-43.6823,
4.7130,0.0010,-0.0465,1.0271,0.0024,0.0280,0.0105,-0.0048,0.0022,0.0049,-2.4206,20.4810,-43.6823,
4.7570,0.0013,-0.0463,1.0387,0.0024,0.0280,0.0105,-0.0048,0.0022,0.0049,-2.4206,20.4810,-43.6823,
4.7590,0.0013,-0.0463,1.0387,0.0024,0.0280,0.0105,0.0019,-0.0078,0.0037,-2.4206,20.4810,-43.6823,
4.7590,0.0013,-0.0463,1.0387,0.0012,-0.0012,-0.0270,0.0019,-0.0078,0.0037,-2.4206,20.4810,-43.6823,
4.7600,0.0028,-0.0435,1.0115,0.0012,-0.0012,-0.0270,0.0019,-0.0078,0.0037,-2.4206,20.4810,-43.6823,
4.7620,-0.0000,-0.0420,1.0076,0.0012,-0.0012,-0.0270,0.0019,-0.0078,0.0037,-2.4206,20.4810,-43.6823,
4.7620,-0.0000,-0.0420,1.0076,0.0012,-0.0012,-0.0270,0.0019,-0.0078,0.0037,-2.3968,20.4727,-43.6691,
4.7790,0.0032,-0.0481,1.0137,0.0012,-0.0012,-0.0270,0.0019,-0.0078,0.0037,-2.3968,20.4727,-43.6691,
4.7810,0.0032,-0.0481,1.0137,0.0012,-0.0012,-0.0270,-0.0268,0.0346,0.0077,-2.3968,20.4727,-43.6691,
4.8150,0.0032,-0.0481,1.0137,-0.0067,0.0038,-0.0318,-0.0268,0.0346,0.0077,-2.3968,20.4727,-43.6691,
4.8160,0.0032,-0.0481,1.0137,-0.0067,0.0038,-0.0318,0.0123,-0.0136,0.0028,-2.3968,20.4727,-43.6691,
4.8170,0.0039,-0.0533,1.0763,-0.0067,0.0038,-0.0318,0.0123,-0.0136,0.0028,-2.3968,20.4727,-43.6691,
4.8180,-0.0011,-0.0493,1.0107,-0.0067,0.0038,-0.0318,0.0123,-0.0136,0.0028,-2.3968,20.4727,-43.6691,
4.8250,-0.0011,-0.0493,1.0107,-0.0067,0.0038,-0.0318,0.0123,-0.0136,0.0028,-2.3238,20.4874,-43.6143,
4.8460,-0.0028,-0.0460,1.0219,-0.0067,0.0038,-0.0318,0.0123,-0.0136,0.0028,-2.3238,20.4874,-43.6143,
4.8920,-0.0028,-0.0460,1.0219,-0.0067,0.0038,-0.0318,0.0123,-0.0136,0.0028,-2.2233,20.5511,-43.5939,
4.8940,0.0032,-0.0417,1.0393,-0.0067,0.0038,-0.0318,0.0123,-0.0136,0.0028,-2.2233,20.5511,-43.5939,
4.8950,0.0032,-0.0417,1.0393,-0.0067,0.0038,-0.0318,0.0147,-0.0176,0.0028,-2.2233,20.5511,-43.5939,
4.8950,0.0060,-0.0353,1.0062,-0.0067,0.0038,-0.0318,0.0147,-0.0176,0.0028,-2.2233,20.5511,-43.5939,
4.8960,0.0046,-0.0350,1.0230,-0.0067,0.0038,-0.0318,0.0147,-0.0176,0.0028,-2.2233,20.5511,-43.5939,
4.8960,0.0046,-0.0350,1.0230,-0.0067,0.0038,-0.0318,0.0141,-0.0026,0.0025,-2.2233,20.5511,-43.5939,
4.8970,0.0046,-0.0350,1.0230,-0.0117,-0.0544,0.0485,0.0141,-0.0026,0.0025,-2.2233,20.5511,-43.5939,
4.9130,0.0057,-0.0369,1.0312,-0.0117,-0.0544,0.0485,0.0141,-0.0026,0.0025,-2.2233,20.5511,-43.5939,
4.9510,0.0044,-0.0406,1.0280,-0.0117,-0.0544,0.0485,0.0141,-0.0026,0.0025,-2.2233,20.5511,-43.5939,
4.9530,0.0044,-0.0406,1.0280,-0.0117,-0.0544,0.0485,-0.0171,0.0047,0.0055,-2.2233,20.5511,-43.5939,
4.9530,-0.0004,-0.0469,1.0312,-0.0117,-0.0544,0.0485,-0.0171,0.0047,0.0055,-2.2233,20.5511,-43.5939,
4.9540,-0.0004,-0.0469,1.0312,0.0145,0.0543,-0.0108,-0.0171,0.0047,0.0055,-2.2233,20.5511,-43.5939,
4.9570,-0.0004,-0.0469,1.0312,0.0145,0.0543,-0.0108,-0.0171,0.0047,0.0055,-2.2598,20.5490,-43.6082,
4.9800,-0.0004,-0.0469,1.0312,0.0145,0.0543,-0.0108,0.0065,0.0071,0.0043,-2.2598,20.5490,-43.6082,
4.9820,-0.0023,-0.0507,1.0238,0.0145,0.0543,-0.0108,0.0065,0.0071,0.0043,-2.2598,20.5490,-43.6082,
5.0250,-0.0021,-0.0505,1.0229,0.0145,0.0543,-0.0108,0.0065,0.0071,0.0043,-2.2598,20.5490,-43.6082,
5.0260,-0.0021,-0.0505,1.0229,0.0145,0.0543,-0.0108,0.0065,0.0071,0.0043,-2.2706,20.5563,-43.6723,
5.0270,-0.0018,-0.0480,1.0283,0.0145,0.0543,-0.0108,0.0065,0.0071,0.0043,-2.2706,20.5563,-43.6723,
5.0280,-0.0018,-0.0480,1.0283,0.0145,0.0543,-0.0108,0.0040,-0.0005,0.0055,-2.2706,20.5563,-43.6723,
5.0280,-0.0018,-0.0480,1.0283,0.0022,0.0069,0.0386,0.0040,-0.0005,0.0055,-2.2706,20.5563,-43.6723,
5.0290,0.0029,-0.0472,1.0308,0.0022,0.0069,0.0386,0.0040,-0.0005,0.0055,-2.2706,20.5563,-43.6723,
5.0890,0.0029,-0.0472,1.0308,0.0022,0.0069,0.0386,0.0086,-0.0051,0.0061,-2.2706,20.5563,-43.6723,
5.0910,0.0029,-0.0472,1.0308,-0.0259,-0.0425,0.0047,0.0086,-0.0051,0.0061,-2.2706,20.5563,-43.6723,
5.0920,0.0029,-0.0472,1.0308,-0.0259,-0.0425,0.0047,-0.0103,-0.0017,0.0034,-2.2706,20.5563,-43.6723,
5.0920,0.0041,-0.0458,1.0200,-0.0259,-0.0425,0.0047,-0.0103,-0.0017,0.0034,-2.2706,20.5563,-43.6723,
5.0930,0.0029,-0.0437,1.0200,-0.0259,-0.0425,0.0047,-0.0103,-0.0017,0.0034,-2.2706,20.5563,-43.6723,
5.0940,0.0005,-0.0421,1.0216,-0.0259,-0.0425,0.0047,-0.0103,-0.0017,0.0034,-2.2706,20.5563,-43.6723,
5.0940,0.0005,-0.0421,1.0216,-0.0259,-0.0425,0.0047,-0.0103,-0.0017,0.0034,-2.2557,20.6055,-43.6816,
5.1110,0.0067,-0.0452,1.0217,-0.0259,-0.0425,0.0047,-0.0103,-0.0017,0.0034,-2.2557,20.6055,-43.6816,
5.1570,0.0052,-0.0454,1.0570,-0.0259,-0.0425,0.0047,-0.0103,-0.0017,0.0034,-2.2557,20.6055,-43.6816,
5.1590,0.0052,-0.0454,1.0570,-0.0259,-0.0425,0.0047,-0.0027,0.0080,-0.0015,-2.2557,20.6055,-43.6816,
5.1590,-0.0001,-0.0389,1.0093,-0.0259,-0.0425,0.0047,-0.0027,0.0080,-0.0015,-2.2557,20.6055,-43.6816,
5.1600,-0.0001,-0.0389,1.0093,-0.0259,-0.0425,0.0047,-0.0027,0.0080,-0.0015,-2.2408,20.6437,-43.7301,
5.1670,0.0007,-0.0364,1.0200,-0.0259,-0.0425,0.0047,-0.0027,0.0080,-0.0015,-2.2408,20.6437,-43.7301,
5.1670,0.0007,-0.0364,1.0200,-0.0259,-0.0425,0.0047,0.0358,0.0007,-0.0091,-2.2408,20.6437,-43.7301,
5.1680,0.0007,-0.0364,1.0200,0.0109,-0.0080,-0.0816,0.0358,0.0007,-0.0091,-2.2408,20.6437,-43.7301,
5.2280,0.0007,-0.0364,1.0200,0.0109,-0.0080,-0.0816,0.0358,0.0007,-0.0091,-2.2307,20.6050,-43.7322,
5.2310,0.0007,-0.0364,1.0200,0.0109,-0.0080,-0.0816,0.0156,0.0111,-0.0033,-2.2307,20.6050,-43.7322,
5.2310,0.0038,-0.0367,1.0363,0.0109,-0.0080,-0.0816,0.0156,0.0111,-0.0033,-2.2307,20.6050,-43.7322,
5.2320,0.0037,-0.0378,1.0224,0.0109,-0.0080,-0.0816,0.0156,0.0111,-0.0033,-2.2307,20.6050,-43.7322,
5.2330,-0.0015,-0.0409,1.0338,0.0109,-0.0080,-0.0816,0.0156,0.0111,-0.0033,-2.2307,20.6050,-43.7322,
5.2330,-0.0015,-0.0409,1.0338,0.0141,0.0052,0.0605,0.0156,0.0111,-0.0033,-2.2307,20.6050,-43.7322,
5.2470,-0.0050,-0.0427,1.0125,0.0141,0.0052,0.0605,0.0156,0.0111,-0.0033,-2.2307,20.6050,-43.7322,
5.2490,-0.0050,-0.0427,1.0125,0.0141,0.0052,0.0605,0.0210,0.0066,-0.0015,-2.2307,20.6050,-43.7322,
5.2910,-0.0050,-0.0427,1.0125,0.0141,0.0052,0.0605,-0.0040,0.0051,0.0030,-2.2307,20.6050,-43.7322,
5.2920,-0.0018,-0.0436,1.0168,0.0141,0.0052,0.0605,-0.0040,0.0051,0.0030,-2.2307,20.6050,-43.7322,
5.2920,-0.0009,-0.0433,1.0284,0.0141,0.0052,0.0605,-0.0040,0.0051,0.0030,-2.2307,20.6050,-43.7322,
5.2930,-0.0009,-0.0433,1.0284,0.0141,0.0052,0.0605,-0.0040,0.0051,0.0030,-2.2321,20.5752,-43.7469,
5.3020,0.0001,-0.0459,1.0208,0.0141,0.0052,0.0605,-0.0040,0.0051,0.0030,-2.2321,20.5752,-43.7469,
5.3030,0.0001,-0.0459,1.0208,-0.0008,0.0198,0.0293,-0.0040,0.0051,0.0030,-2.2321,20.5752,-43.7469,
5.3590,0.0001,-0.0459,1.0208,-0.0008,0.0198,0.0293,0.0079,0.0026,0.0024,-2.2321,20.5752,-43.7469,
5.3610,0.0038,-0.0489,1.0168,-0.0008,0.0198,0.0293,0.0079,0.0026,0.0024,-2.2321,20.5752,-43.7469,
5.3620,0.0033,-0.0483,1.0291,-0.0008,0.0198,0.0293,0.0079,0.0026,0.0024,-2.2321,20.5752,-43.7469,
5.3620,0.0033,-0.0483,1.0291,-0.0008,0.0198,0.0293,0.0079,0.0026,0.0024,-2.2676,20.5821,-43.7863,
5.3630,0.0015,-0.0439,1.0207,-0.0008,0.0198,0.0293,0.0079,0.0026,0.0024,-2.2676,20.5821,-43.7863,
5.3640,0.0015,-0.0439,1.0207,-0.0008,0.0198,0.0293,0.0103,0.0081,0.0036,-2.2676,20.5821,-43.7863,
5.3640,0.0015,-0.0439,1.0207,-0.0185,-0.0305,-0.0550,0.0103,0.0081,0.0036,-2.2676,20.5821,-43.7863,
5.4260,0.0009,-0.0413,1.0255,-0.0185,-0.0305,-0.0550,0.0103,0.0081,0.0036,-2.2676,20.5821,-43.7863,
5.4300,-0.0010,-0.0403,1.0288,-0.0185,-0.0305,-0.0550,0.0103,0.0081,0.0036,-2.2676,20.5821,-43.7863,
5.4330,-0.0026,-0.0371,1.0172,-0.0185,-0.0305,-0.0550,0.0103,0.0081,0.0036,-2.2676,20.5821,-43.7863,
5.4330,-0.0026,-0.0371,1.0172,-0.0185,-0.0305,-0.0550,0.0085,0.0066,0.0006,-2.2676,20.5821,-43.7863,
5.4340,-0.0026,-0.0371,1.0172,-0.0185,-0.0305,-0.0550,0.0085,0.0066,0.0006,-2.3286,20.5684,-43.8278,
5.4400,-0.0001,-0.0364,1.0216,-0.0185,-0.0305,-0.0550,0.0085,0.0066,0.0006,-2.3286,20.5684,-43.8278,
5.4410,-0.0001,-0.0364,1.0216,-0.0185,-0.0305,-0.0550,0.0100,0.0005,0.0018,-2.3286,20.5684,-43.8278,
5.4420,-0.0001,-0.0364,1.0216,0.0214,-0.0532,-0.0278,0.0100,0.0005,0.0018,-2.3286,20.5684,-43.8278,
5.4940,-0.0001,-0.0364,1.0216,0.0214,-0.0532,-0.0278,0.0137,0.0036,-0.0006,-2.3286,20.5684,-43.8278,
5.4970,-0.0001,-0.0364,1.0216,0.0214,-0.0532,-0.0278,0.0137,0.0036,-0.0006,-2.3542,20.5591,-43.7779,
5.4990,0.0013,-0.0375,1.0334,0.0214,-0.0532,-0.0278,0.0137,0.0036,-0.0006,-2.3542,20.5591,-43.7779,
5.5000,0.0013,-0.0360,1.0315,0.0214,-0.0532,-0.0278,0.0137,0.0036,-0.0006,-2.3542,20.5591,-43.7779,
5.5010,-0.0000,-0.0337,1.0255,0.0214,-0.0532,-0.0278,0.0137,0.0036,-0.0006,-2.3542,20.5591,-43.7779,
5.5020,-0.0000,-0.0337,1.0255,-0.0104,0.0139,-0.0154,0.0137,0.0036,-0.0006,-2.3542,20.5591,-43.7779,
5.5600,-0.0000,-0.0337,1.0255,-0.0104,0.0139,-0.0154,0.0137,0.0036,-0.0006,-2.3305,20.5397,-43.8039,
5.5620,-0.0000,-0.0337,1.0255,-0.0104,0.0139,-0.0154,0.0155,0.0045,-0.0003,-2.3305,20.5397,-43.8039,
5.5630,-0.0000,-0.0337,1.0255,-0.0104,0.0139,-0.0154,-0.0092,0.0482,-0.0006,-2.3305,20.5397,-43.8039,
5.5640,-0.0035,-0.0332,1.0126,-0.0104,0.0139,-0.0154,-0.0092,0.0482,-0.0006,-2.3305,20.5397,-43.8039,
5.5650,-0.0021,-0.0373,0.9966,-0.0104,0.0139,-0.0154,-0.0092,0.0482,-0.0006,-2.3305,20.5397,-43.8039,
5.5660,0.0024,-0.0448,1.0599,-0.0104,0.0139,-0.0154,-0.0092,0.0482,-0.0006,-2.3305,20.5397,-43.8039,
5.5760,0.0024,-0.0448,1.0599,0.0157,0.0349,0.0297,-0.0092,0.0482,-0.0006,-2.3305,20.5397,-43.8039,
5.5780,-0.0050,-0.0447,1.0279,0.0157,0.0349,0.0297,-0.0092,0.0482,-0.0006,-2.3305,20.5397,-43.8039,
5.6260,-0.0050,-0.0447,1.0279,0.0157,0.0349,0.0297,-0.0092,0.0482,-0.0006,-2.3339,20.4706,-43.8212,
5.6280,-0.0050,-0.0447,1.0279,0.0157,0.0349,0.0297,0.0238,-0.0221,-0.0046,-2.3339,20.4706,-43.8212,
5.6290,-0.0061,-0.0415,1.0023,0.0157,0.0349,0.0297,0.0238,-0.0221,-0.0046,-2.3339,20.4706,-43.8212,
5.6300,-0.0051,-0.0408,1.0357,0.0157,0.0349,0.0297,0.0238,-0.0221,-0.0046,-2.3339,20.4706,-43.8212,
5.6350,-0.0051,-0.0408,1.0357,0.0157,0.0349,0.0297,0.0201,-0.0044,-0.0015,-2.3339,20.4706,-43.8212,
5.6360,-0.0051,-0.0408,1.0357,-0.0096,-0.0305,-0.0014,0.0201,-0.0044,-0.0015,-2.3339,20.4706,-43.8212,
5.6370,-0.0017,-0.0350,1.0238,-0.0096,-0.0305,-0.0014,0.0201,-0.0044,-0.0015,-2.3339,20.4706,-43.8212,
5.6930,0.0011,-0.0304,0.9968,-0.0096,-0.0305,-0.0014,0.0201,-0.0044,-0.0015,-2.3339,20.4706,-43.8212,
5.6960,0.0011,-0.0304,0.9968,-0.0096,-0.0305,-0.0014,-0.0202,0.0115,0.0043,-2.3339,20.4706,-43.8212,
5.6970,0.0011,-0.0304,0.9968,-0.0096,-0.0305,-0.0014,-0.0202,0.0115,0.0043,-2.3365,20.4215,-43.8244,
5.6980,0.0024,-0.0332,1.0252,-0.0096,-0.0305,-0.0014,-0.0202,0.0115,0.0043,-2.3365,20.4215,-43.8244,
5.7130,0.0021,-0.0375,1.0376,-0.0096,-0.0305,-0.0014,-0.0202,0.0115,0.0043,-2.3365,20.4215,-43.8244,
5.7140,-0.0017,-0.0417,1.0297,-0.0096,-0.0305,-0.0014,-0.0202,0.0115,0.0043,-2.3365,20.4215,-43.8244,
5.7150,-0.0017,-0.0417,1.0297,-0.0096,-0.0305,-0.0014,-0.0287,0.0106,0.0027,-2.3365,20.4215,-43.8244,
5.7160,-0.0017,-0.0417,1.0297,-0.0163,0.0199,-0.0756,-0.0287,0.0106,0.0027,-2.3365,20.4215,-43.8244,
5.7580,-0.0017,-0.0417,1.0297,-0.0163,0.0199,-0.0756,-0.0028,0.0078,0.0006,-2.3365,20.4215,-43.8244,
5.7590,-0.0050,-0.0441,1.0290,-0.0163,0.0199,-0.0756,-0.0028,0.0078,0.0006,-2.3365,20.4215,-43.8244,
5.7600,-0.0066,-0.0439,1.0250,-0.0163,0.0199,-0.0756,-0.0028,0.0078,0.0006,-2.3365,20.4215,-43.8244,
5.7600,-0.0066,-0.0439,1.0250,-0.0163,0.0199,-0.0756,-0.0028,0.0078,0.0006,-2.3853,20.4193,-43.8262,
5.7760,-0.0031,-0.0425,1.0294,-0.0163,0.0199,-0.0756,-0.0028,0.0078,0.0006,-2.3853,20.4193,-43.8262,
5.7780,-0.0031,-0.0425,1.0294,0.0289,0.0288,0.0197,-0.0028,0.0078,0.0006,-2.3853,20.4193,-43.8262,
5.8260,-0.0031,-0.0425,1.0294,0.0289,0.0288,0.0197,0.0100,0.0048,-0.0015,-2.3853,20.4193,-43.8262,
5.8280,-0.0039,-0.0417,1.0278,0.0289,0.0288,0.0197,0.0100,0.0048,-0.0015,-2.3853,20.4193,-43.8262,
5.8290,-0.0028,-0.0377,1.0214,0.0289,0.0288,0.0197,0.0100,0.0048,-0.0015,-2.3853,20.4193,-43.8262,
5.8300,-0.0028,-0.0377,1.0214,0.0289,0.0288,0.0197,0.0100,0.0048,-0.0015,-2.3621,20.4012,-43.8137,
5.8460,-0.0038,-0.0353,1.0122,0.0289,0.0288,0.0197,0.0100,0.0048,-0.0015,-2.3621,20.4012,-43.8137,
5.8480,-0.0038,-0.0353,1.0122,0.0289,0.0288,0.0197,0.0131,0.0112,0.0003,-2.3621,20.4012,-43.8137,
5.8480,-0.0059,-0.0337,1.0421,0.0289,0.0288,0.0197,0.0131,0.0112,0.0003,-2.3621,20.4012,-43.8137,
5.8490,-0.0059,-0.0337,1.0421,-0.0202,-0.0405,0.0322,0.0131,0.0112,0.0003,-2.3621,20.4012,-43.8137,
5.8910,-0.0044,-0.0361,0.9937,-0.0202,-0.0405,0.0322,0.0131,0.0112,0.0003,-2.3621,20.4012,-43.8137,
5.8920,-0.0044,-0.0361,0.9937,-0.0202,-0.0405,0.0322,-0.0071,0.0036,0.0009,-2.3621,20.4012,-43.8137,
5.8920,-0.0012,-0.0387,1.0415,-0.0202,-0.0405,0.0322,-0.0071,0.0036,0.0009,-2.3621,20.4012,-43.8137,
5.8930,-0.0012,-0.0387,1.0415,-0.0202,-0.0405,0.0322,-0.0071,0.0036,0.0009,-2.3052,20.3254,-43.8164,
5.9100,-0.0012,-0.0387,1.0415,-0.0091,0.0268,0.0010,-0.0071,0.0036,0.0009,-2.3052,20.3254,-43.8164,
5.9120,-0.0012,-0.0387,1.0415,-0.0091,0.0268,0.0010,-0.0006,0.0075,-0.0046,-2.3052,20.3254,-43.8164,
5.9120,-0.0084,-0.0364,1.0229,-0.0091,0.0268,0.0010,-0.0006,0.0075,-0.0046,-2.3052,20.3254,-43.8164,
5.9590,-0.0084,-0.0364,1.0229,-0.0091,0.0268,0.0010,-0.0184,-0.0041,-0.0037,-2.3052,20.3254,-43.8164,
5.9610,-0.0075,-0.0361,1.0042,-0.0091,0.0268,0.0010,-0.0184,-0.0041,-0.0037,-2.3052,20.3254,-43.8164,
5.9620,-0.0023,-0.0373,1.0394,-0.0091,0.0268,0.0010,-0.0184,-0.0041,-0.0037,-2.3052,20.3254,-43.8164,
5.9620,-0.0023,-0.0373,1.0394,-0.0091,0.0268,0.0010,-0.0184,-0.0041,-0.0037,-2.3181,20.3044,-43.8438,
5.9790,-0.0011,-0.0372,1.0233,-0.0091,0.0268,0.0010,-0.0184,-0.0041,-0.0037,-2.3181,20.3044,-43.8438,
5.9850,-0.0010,-0.0409,1.0239,-0.0091,0.0268,0.0010,-0.0184,-0.0041,-0.0037,-2.3181,20.3044,-43.8438,
5.9870,-0.0010,-0.0409,1.0239,-0.0091,0.0268,0.0010,-0.0123,-0.0026,0.0009,-2.3181,20.3044,-43.8438,
5.9870,-0.0010,-0.0409,1.0239,-0.0196,0.0299,-0.0777,-0.0123,-0.0026,0.0009,-2.3181,20.3044,-43.8438,
6.0250,-0.0050,-0.0445,1.0232,-0.0196,0.0299,-0.0777,-0.0123,-0.0026,0.0009,-2.3181,20.3044,-43.8438,
6.0270,-0.0016,-0.0452,1.0164,-0.0196,0.0299,-0.0777,-0.0123,-0.0026,0.0009,-2.3181,20.3044,-43.8438,
6.0270,-0.0016,-0.0452,1.0164,-0.0196,0.0299,-0.0777,-0.0233,-0.0059,0.0027,-2.3181,20.3044,-43.8438,
6.0280,-0.0016,-0.0452,1.0164,-0.0196,0.0299,-0.0777,-0.0233,-0.0059,0.0027,-2.2458,20.2766,-43.8944,
6.0440,-0.0027,-0.0459,1.0330,-0.0196,0.0299,-0.0777,-0.0233,-0.0059,0.0027,-2.2458,20.2766,-43.8944,
6.0460,-0.0027,-0.0459,1.0330,0.0052,0.0300,0.0227,-0.0233,-0.0059,0.0027,-2.2458,20.2766,-43.8944,
6.0940,-0.0027,-0.0459,1.0330,0.0052,0.0300,0.0227,-0.0147,-0.0117,0.0018,-2.2458,20.2766,-43.8944,
6.0970,-0.0056,-0.0452,1.0261,0.0052,0.0300,0.0227,-0.0147,-0.0117,0.0018,-2.2458,20.2766,-43.8944,
6.0980,-0.0042,-0.0426,1.0144,0.0052,0.0300,0.0227,-0.0147,-0.0117,0.0018,-2.2458,20.2766,-43.8944,
6.0990,-0.0042,-0.0426,1.0144,0.0052,0.0300,0.0227,-0.0147,-0.0117,0.0018,-2.2102,20.2696,-43.8551,
6.1120,-0.0042,-0.0426,1.0144,0.0052,0.0300,0.0227,-0.0034,-0.0074,0.0024,-2.2102,20.2696,-43.8551,
6.1130,-0.0016,-0.0413,1.0256,0.0052,0.0300,0.0227,-0.0034,-0.0074,0.0024,-2.2102,20.2696,-43.8551,
6.1220,-0.0016,-0.0413,1.0256,-0.0109,-0.0360,0.0064,-0.0034,-0.0074,0.0024,-2.2102,20.2696,-43.8551,
6.1230,-0.0026,-0.0384,1.0295,-0.0109,-0.0360,0.0064,-0.0034,-0.0074,0.0024,-2.2102,20.2696,-43.8551,
6.1580,-0.0031,-0.0361,1.0188,-0.0109,-0.0360,0.0064,-0.0034,-0.0074,0.0024,-2.2102,20.2696,-43.8551,
6.1600,-0.0031,-0.0361,1.0188,-0.0109,-0.0360,0.0064,-0.0034,-0.0074,0.0024,-2.1997,20.2521,-43.8044,
6.1610,-0.0031,-0.0361,1.0188,-0.0109,-0.0360,0.0064,0.0091,-0.0022,0.0027,-2.1997,20.2521,-43.8044,
6.1790,-0.0048,-0.0350,1.0236,-0.0109,-0.0360,0.0064,0.0091,-0.0022,0.0027,-2.1997,20.2521,-43.8044,
6.1810,-0.0040,-0.0358,1.0234,-0.0109,-0.0360,0.0064,0.0091,-0.0022,0.0027,-2.1997,20.2521,-43.8044,
6.1820,-0.0040,-0.0358,1.0234,-0.0109,-0.0360,0.0064,-0.0003,-0.0019,0.0024,-2.1997,20.2521,-43.8044,
6.1830,-0.0040,-0.0358,1.0234,-0.0093,0.0008,-0.0101,-0.0003,-0.0019,0.0024,-2.1997,20.2521,-43.8044,
6.2260,-0.0062,-0.0371,1.0212,-0.0093,0.0008,-0.0101,-0.0003,-0.0019,0.0024,-2.1997,20.2521,-43.8044,
6.2280,-0.0062,-0.0371,1.0212,-0.0093,0.0008,-0.0101,-0.0003,-0.0019,0.0024,-2.1748,20.2630,-43.8028,
6.2290,-0.0033,-0.0393,1.0285,-0.0093,0.0008,-0.0101,-0.0003,-0.0019,0.0024,-2.1748,20.2630,-43.8028,
6.2300,-0.0033,-0.0393,1.0285,-0.0093,0.0008,-0.0101,-0.0034,-0.0041,-0.0006,-2.1748,20.2630,-43.8028,
6.2460,-0.0020,-0.0386,1.0263,-0.0093,0.0008,-0.0101,-0.0034,-0.0041,-0.0006,-2.1748,20.2630,-43.8028,
6.2580,-0.0062,-0.0387,1.0186,-0.0093,0.0008,-0.0101,-0.0034,-0.0041,-0.0006,-2.1748,20.2630,-43.8028,
6.2590,-0.0062,-0.0387,1.0186,-0.0093,0.0008,-0.0101,-0.0083,-0.0080,-0.0015,-2.1748,20.2630,-43.8028,
6.2590,-0.0062,-0.0387,1.0186,-0.0221,0.0523,-0.0219,-0.0083,-0.0080,-0.0015,-2.1748,20.2630,-43.8028,
6.2910,-0.0062,-0.0387,1.0186,-0.0221,0.0523,-0.0219,-0.0083,-0.0080,-0.0015,-2.1143,20.2559,-43.8012,
6.2920,-0.0034,-0.0439,1.0051,-0.0221,0.0523,-0.0219,-0.0083,-0.0080,-0.0015,-2.1143,20.2559,-43.8012,
6.3130,-0.0034,-0.0439,1.0051,-0.0221,0.0523,-0.0219,-0.0184,0.0448,0.0009,-2.1143,20.2559,-43.8012,
6.3150,0.0038,-0.0515,1.0387,-0.0221,0.0523,-0.0219,-0.0184,0.0448,0.0009,-2.1143,20.2559,-43.8012,
6.3170,-0.0043,-0.0507,1.0510,-0.0221,0.0523,-0.0219,-0.0184,0.0448,0.0009,-2.1143,20.2559,-43.8012,
6.3180,-0.0043,-0.0507,1.0510,-0.0073,0.0223,0.0033,-0.0184,0.0448,0.0009,-2.1143,20.2559,-43.8012,
6.3580,-0.0043,-0.0507,1.0510,-0.0073,0.0223,0.0033,0.0226,-0.0258,-0.0049,-2.1143,20.2559,-43.8012,
6.3590,-0.0083,-0.0432,1.0015,-0.0073,0.0223,0.0033,0.0226,-0.0258,-0.0049,-2.1143,20.2559,-43.8012,
6.3600,-0.0064,-0.0422,1.0250,-0.0073,0.0223,0.0033,0.0226,-0.0258,-0.0049,-2.1143,20.2559,-43.8012,
6.3600,-0.0064,-0.0422,1.0250,-0.0073,0.0223,0.0033,0.0226,-0.0258,-0.0049,-2.1008,20.2753,-43.8252,
6.3790,-0.0064,-0.0422,1.0250,-0.0073,0.0223,0.0033,0.0073,-0.0102,-0.0067,-2.1008,20.2753,-43.8252,
6.3800,-0.0013,-0.0369,1.0365,-0.0073,0.0223,0.0033,0.0073,-0.0102,-0.0067,-2.1008,20.2753,-43.8252,
6.3960,-0.0013,-0.0369,1.0365,0.0022,-0.0695,0.0340,0.0073,-0.0102,-0.0067,-2.1008,20.2753,-43.8252,
6.3980,-0.0005,-0.0301,1.0030,0.0022,-0.0695,0.0340,0.0073,-0.0102,-0.0067,-2.1008,20.2753,-43.8252,
6.4250,-0.0005,-0.0301,1.0030,0.0022,-0.0695,0.0340,-0.0013,-0.0047,-0.0055,-2.1008,20.2753,-43.8252,
6.4260,-0.0000,-0.0301,1.0337,0.0022,-0.0695,0.0340,-0.0013,-0.0047,-0.0055,-2.1008,20.2753,-43.8252,
6.4270,-0.0000,-0.0301,1.0337,0.0022,-0.0695,0.0340,-0.0013,-0.0047,-0.0055,-2.0894,20.2668,-43.7996,
6.4460,0.0009,-0.0316,1.0295,0.0022,-0.0695,0.0340,-0.0013,-0.0047,-0.0055,-2.0894,20.2668,-43.7996,
6.4540,0.0009,-0.0316,1.0295,0.0022,-0.0695,0.0340,-0.0034,-0.0019,0.0003,-2.0894,20.2668,-43.7996,
6.4560,-0.0029,-0.0359,1.0213,0.0022,-0.0695,0.0340,-0.0034,-0.0019,0.0003,-2.0894,20.2668,-43.7996,
6.4570,-0.0029,-0.0359,1.0213,-0.0129,0.0377,-0.0544,-0.0034,-0.0019,0.0003,-2.0894,20.2668,-43.7996,
6.4920,-0.0071,-0.0414,1.0255,-0.0129,0.0377,-0.0544,-0.0034,-0.0019,0.0003,-2.0894,20.2668,-43.7996,
6.4930,-0.0071,-0.0414,1.0255,-0.0129,0.0377,-0.0544,-0.0034,-0.0019,0.0003,-2.0169,20.2717,-43.7454,
6.5130,-0.0071,-0.0430,1.0277,-0.0129,0.0377,-0.0544,-0.0034,-0.0019,0.0003,-2.0169,20.2717,-43.7454,
6.5160,-0.0071,-0.0430,1.0277,-0.0129,0.0377,-0.0544,-0.0031,0.0011,0.0006,-2.0169,20.2717,-43.7454,
6.5170,-0.0018,-0.0438,1.0241,-0.0129,0.0377,-0.0544,-0.0031,0.0011,0.0006,-2.0169,20.2717,-43.7454,
6.5320,-0.0016,-0.0443,1.0350,-0.0129,0.0377,-0.0544,-0.0031,0.0011,0.0006,-2.0169,20.2717,-43.7454,
6.5340,-0.0016,-0.0443,1.0350,-0.0129,0.0377,-0.0544,-0.0077,-0.0105,-0.0006,-2.0169,20.2717,-43.7454,
6.5340,-0.0016,-0.0443,1.0350,0.0031,0.0681,0.0323,-0.0077,-0.0105,-0.0006,-2.0169,20.2717,-43.7454,
6.5570,-0.0016,-0.0443,1.0350,0.0031,0.0681,0.0323,-0.0077,-0.0105,-0.0006,-2.0157,20.2909,-43.7570,
6.5580,-0.0034,-0.0449,1.0258,0.0031,0.0681,0.0323,-0.0077,-0.0105,-0.0006,-2.0157,20.2909,-43.7570,
6.5790,-0.0023,-0.0430,1.0210,0.0031,0.0681,0.0323,-0.0077,-0.0105,-0.0006,-2.0157,20.2909,-43.7570,
6.5800,-0.0023,-0.0430,1.0210,0.0031,0.0681,0.0323,0.0110,-0.0099,-0.0006,-2.0157,20.2909,-43.7570,
6.5910,-0.0023,-0.0430,1.0210,-0.0234,-0.0302,0.0419,0.0110,-0.0099,-0.0006,-2.0157,20.2909,-43.7570,
6.5930,-0.0029,-0.0397,1.0288,-0.0234,-0.0302,0.0419,0.0110,-0.0099,-0.0006,-2.0157,20.2909,-43.7570,
6.6250,-0.0029,-0.0381,1.0054,-0.0234,-0.0302,0.0419,0.0110,-0.0099,-0.0006,-2.0157,20.2909,-43.7570,
6.6260,-0.0029,-0.0381,1.0054,-0.0234,-0.0302,0.0419,0.0110,-0.0099,-0.0006,-2.0779,20.2690,-43.7477,
6.6290,-0.0029,-0.0381,1.0054,-0.0234,-0.0302,0.0419,-0.0010,-0.0126,-0.0025,-2.0779,20.2690,-43.7477,
6.6450,0.0011,-0.0402,1.0175,-0.0234,-0.0302,0.0419,-0.0010,-0.0126,-0.0025,-2.0779,20.2690,-43.7477,
6.6690,-0.0012,-0.0416,1.0591,-0.0234,-0.0302,0.0419,-0.0010,-0.0126,-0.0025,-2.0779,20.2690,-43.7477,
6.6700,-0.0012,-0.0416,1.0591,-0.0234,-0.0302,0.0419,-0.0162,0.0017,0.0009,-2.0779,20.2690,-43.7477,
6.6710,-0.0012,-0.0416,1.0591,-0.0156,-0.0112,0.0096,-0.0162,0.0017,0.0009,-2.0779,20.2690,-43.7477,
6.6710,-0.0043,-0.0362,1.0090,-0.0156,-0.0112,0.0096,-0.0162,0.0017,0.0009,-2.0779,20.2690,-43.7477,
6.6920,-0.0043,-0.0362,1.0090,-0.0156,-0.0112,0.0096,-0.0162,0.0017,0.0009,-2.1141,20.2886,-43.6964,
6.6940,-0.0033,-0.0326,1.0234,-0.0156,-0.0112,0.0096,-0.0162,0.0017,0.0009,-2.1141,20.2886,-43.6964,
6.6940,-0.0033,-0.0326,1.0234,-0.0156,-0.0112,0.0096,0.0161,-0.0129,-0.0043,-2.1141,20.2886,-43.6964,
6.7120,0.0007,-0.0309,1.0324,-0.0156,-0.0112,0.0096,0.0161,-0.0129,-0.0043,-2.1141,20.2886,-43.6964,
6.7280,0.0007,-0.0309,1.0324,-0.0068,0.0126,-0.0246,0.0161,-0.0129,-0.0043,-2.1141,20.2886,-43.6964,
6.7300,0.0007,-0.0309,1.0324,-0.0068,0.0126,-0.0246,0.0021,-0.0053,-0.0003,-2.1141,20.2886,-43.6964,
6.7310,0.0006,-0.0355,1.0221,-0.0068,0.0126,-0.0246,0.0021,-0.0053,-0.0003,-2.1141,20.2886,-43.6964,
6.7580,0.0006,-0.0355,1.0221,-0.0068,0.0126,-0.0246,0.0021,-0.0053,-0.0003,-2.1012,20.2985,-43.7081,
6.7600,-0.0049,-0.0377,1.0328,-0.0068,0.0126,-0.0246,0.0021,-0.0053,-0.0003,-2.1012,20.2985,-43.7081,
6.7780,-0.0005,-0.0425,1.0161,-0.0068,0.0126,-0.0246,0.0021,-0.0053,-0.0003,-2.1012,20.2985,-43.7081,
6.7800,-0.0005,-0.0425,1.0161,-0.0068,0.0126,-0.0246,0.0061,-0.0047,0.0021,-2.1012,20.2985,-43.7081,
6.8050,-0.0016,-0.0413,1.0162,-0.0068,0.0126,-0.0246,0.0061,-0.0047,0.0021,-2.1012,20.2985,-43.7081,
6.8070,-0.0016,-0.0413,1.0162,-0.0068,0.0126,-0.0246,-0.0141,0.0002,-0.0015,-2.1012,20.2985,-43.7081,
6.8070,-0.0005,-0.0439,1.0295,-0.0068,0.0126,-0.0246,-0.0141,0.0002,-0.0015,-2.1012,20.2985,-43.7081,
6.8080,-0.0005,-0.0439,1.0295,-0.0016,0.0623,0.0211,-0.0141,0.0002,-0.0015,-2.1012,20.2985,-43.7081,
6.8250,-0.0005,-0.0439,1.0295,-0.0016,0.0623,0.0211,-0.0141,0.0002,-0.0015,-2.1393,20.2785,-43.6722,
6.8460,-0.0005,-0.0439,1.0295,-0.0016,0.0623,0.0211,0.0018,-0.0032,-0.0025,-2.1393,20.2785,-43.6722,
6.8480,-0.0017,-0.0436,1.0321,-0.0016,0.0623,0.0211,0.0018,-0.0032,-0.0025,-2.1393,20.2785,-43.6722,
6.8480,-0.0006,-0.0431,1.0178,-0.0016,0.0623,0.0211,0.0018,-0.0032,-0.0025,-2.1393,20.2785,-43.6722,
6.8640,-0.0006,-0.0431,1.0178,-0.0080,-0.0156,-0.0192,0.0018,-0.0032,-0.0025,-2.1393,20.2785,-43.6722,
6.8650,-0.0022,-0.0420,1.0286,-0.0080,-0.0156,-0.0192,0.0018,-0.0032,-0.0025,-2.1393,20.2785,-43.6722,
6.8920,-0.0022,-0.0420,1.0286,-0.0080,-0.0156,-0.0192,-0.0031,0.0002,-0.0012,-2.1393,20.2785,-43.6722,
6.8930,-0.0033,-0.0404,1.0268,-0.0080,-0.0156,-0.0192,-0.0031,0.0002,-0.0012,-2.1393,20.2785,-43.6722,
6.8950,-0.0033,-0.0404,1.0268,-0.0080,-0.0156,-0.0192,-0.0031,0.0002,-0.0012,-2.1768,20.2568,-43.6877,
6.9130,-0.0016,-0.0381,1.0256,-0.0080,-0.0156,-0.0192,-0.0031,0.0002,-0.0012,-2.1768,20.2568,-43.6877,
6.9420,-0.0013,-0.0378,1.0266,-0.0080,-0.0156,-0.0192,-0.0031,0.0002,-0.0012,-2.1768,20.2568,-43.6877,
6.9430,-0.0012,-0.0355,1.0316,-0.0080,-0.0156,-0.0192,-0.0031,0.0002,-0.0012,-2.1768,20.2568,-43.6877,
6.9430,-0.0012,-0.0355,1.0316,-0.0077,-0.0214,0.0190,-0.0031,0.0002,-0.0012,-2.1768,20.2568,-43.6877,
6.9440,-0.0012,-0.0355,1.0316,-0.0077,-0.0214,0.0190,0.0003,0.0005,-0.0018,-2.1768,20.2568,-43.6877,
6.9580,-0.0012,-0.0355,1.0316,-0.0077,-0.0214,0.0190,0.0003,0.0005,-0.0018,-2.2248,20.2751,-43.6625,
6.9780,-0.0026,-0.0326,1.0266,-0.0077,-0.0214,0.0190,0.0003,0.0005,-0.0018,-2.2248,20.2751,-43.6625,
6.9790,-0.0026,-0.0326,1.0266,-0.0077,-0.0214,0.0190,0.0125,0.0045,-0.0031,-2.2248,20.2751,-43.6625,
7.0000,-0.0026,-0.0326,1.0266,-0.0077,-0.0214,0.0190,0.0088,0.0136,0.0009,-2.2248,20.2751,-43.6625,
7.0010,0.0006,-0.0361,1.0208,-0.0077,-0.0214,0.0190,0.0088,0.0136,0.0009,-2.2248,20.2751,-43.6625,
7.0010,-0.0040,-0.0375,1.0208,-0.0077,-0.0214,0.0190,0.0088,0.0136,0.0009,-2.2248,20.2751,-43.6625,
7.0020,-0.0040,-0.0375,1.0208,0.0018,0.0187,0.0237,0.0088,0.0136,0.0009,-2.2248,20.2751,-43.6625,
7.0250,-0.0035,-0.0364,1.0316,0.0018,0.0187,0.0237,0.0088,0.0136,0.0009,-2.2248,20.2751,-43.6625,
7.0260,-0.0035,-0.0364,1.0316,0.0018,0.0187,0.0237,0.0088,0.0136,0.0009,-2.2127,20.2536,-43.7405,
7.0460,-0.0035,-0.0364,1.0316,0.0018,0.0187,0.0237,0.0067,0.0075,0.0009,-2.2127,20.2536,-43.7405,
7.0470,-0.0021,-0.0354,1.0333,0.0018,0.0187,0.0237,0.0067,0.0075,0.0009,-2.2127,20.2536,-43.7405,
7.0810,-0.0051,-0.0332,1.0078,0.0018,0.0187,0.0237,0.0067,0.0075,0.0009,-2.2127,20.2536,-43.7405,
7.0820,-0.0023,-0.0372,0.9997,0.0018,0.0187,0.0237,0.0067,0.0075,0.0009,-2.2127,20.2536,-43.7405,
7.0830,-0.0023,-0.0372,0.9997,-0.0031,0.0345,-0.0130,0.0067,0.0075,0.0009,-2.2127,20.2536,-43.7405,
7.0830,-0.0023,-0.0372,0.9997,-0.0031,0.0345,-0.0130,-0.0065,0.0045,-0.0003,-2.2127,20.2536,-43.7405,
7.0920,-0.0023,-0.0372,0.9997,-0.0031,0.0345,-0.0130,-0.0065,0.0045,-0.0003,-2.2254,20.2432,-43.7416,
7.1140,0.0017,-0.0467,1.0379,-0.0031,0.0345,-0.0130,-0.0065,0.0045,-0.0003,-2.2254,20.2432,-43.7416,
7.1380,0.0017,-0.0467,1.0379,-0.0031,0.0345,-0.0130,-0.0083,0.0332,-0.0040,-2.2254,20.2432,-43.7416,
7.1400,-0.0038,-0.0471,1.0586,-0.0031,0.0345,-0.0130,-0.0083,0.0332,-0.0040,-2.2254,20.2432,-43.7416,
7.1400,-0.0060,-0.0409,1.0042,-0.0031,0.0345,-0.0130,-0.0083,0.0332,-0.0040,-2.2254,20.2432,-43.7416,
7.1410,-0.0060,-0.0409,1.0042,-0.0053,0.0325,-0.0711,-0.0083,0.0332,-0.0040,-2.2254,20.2432,-43.7416,
7.1570,-0.0039,-0.0416,1.0258,-0.0053,0.0325,-0.0711,-0.0083,0.0332,-0.0040,-2.2254,20.2432,-43.7416,
7.1590,-0.0039,-0.0416,1.0258,-0.0053,0.0325,-0.0711,-0.0006,-0.0313,-0.0034,-2.2254,20.2432,-43.7416,
7.1590,-0.0039,-0.0416,1.0258,-0.0053,0.0325,-0.0711,-0.0006,-0.0313,-0.0034,-2.2258,20.2220,-43.7943,
7.1790,-0.0006,-0.0387,1.0440,-0.0053,0.0325,-0.0711,-0.0006,-0.0313,-0.0034,-2.2258,20.2220,-43.7943,
7.2160,-0.0006,-0.0387,1.0440,-0.0132,-0.0599,0.0601,-0.0006,-0.0313,-0.0034,-2.2258,20.2220,-43.7943,
7.2180,-0.0005,-0.0316,1.0068,-0.0132,-0.0599,0.0601,-0.0006,-0.0313,-0.0034,-2.2258,20.2220,-43.7943,
7.2180,-0.0032,-0.0262,1.0208,-0.0132,-0.0599,0.0601,-0.0006,-0.0313,-0.0034,-2.2258,20.2220,-43.7943,
7.2190,-0.0032,-0.0262,1.0208,-0.0132,-0.0599,0.0601,0.0360,-0.0172,-0.0028,-2.2258,20.2220,-43.7943,
7.2250,-0.0032,-0.0262,1.0208,-0.0132,-0.0599,0.0601,0.0360,-0.0172,-0.0028,-2.1528,20.2036,-43.8572,
7.2460,0.0006,-0.0266,1.0324,-0.0132,-0.0599,0.0601,0.0360,-0.0172,-0.0028,-2.1528,20.2036,-43.8572,
7.2480,0.0006,-0.0266,1.0324,-0.0132,-0.0599,0.0601,-0.0019,-0.0022,-0.0018,-2.1528,20.2036,-43.8572,
7.2730,0.0006,-0.0266,1.0324,-0.0132,-0.0599,0.0601,0.0039,0.0014,0.0009,-2.1528,20.2036,-43.8572,
7.2750,-0.0024,-0.0294,1.0291,-0.0132,-0.0599,0.0601,0.0039,0.0014,0.0009,-2.1528,20.2036,-43.8572,
7.2760,-0.0018,-0.0400,1.0284,-0.0132,-0.0599,0.0601,0.0039,0.0014,0.0009,-2.1528,20.2036,-43.8572,
7.2770,-0.0018,-0.0400,1.0284,0.0017,0.0383,0.0090,0.0039,0.0014,0.0009,-2.1528,20.2036,-43.8572,
7.2910,-0.0018,-0.0400,1.0284,0.0017,0.0383,0.0090,0.0039,0.0014,0.0009,-2.1792,20.1743,-43.8214,
7.3130,-0.0060,-0.0427,1.0252,0.0017,0.0383,0.0090,0.0039,0.0014,0.0009,-2.1792,20.1743,-43.8214,
7.3140,-0.0051,-0.0404,1.0290,0.0017,0.0383,0.0090,0.0039,0.0014,0.0009,-2.1792,20.1743,-43.8214,
7.3150,-0.0051,-0.0404,1.0290,0.0017,0.0383,0.0090,0.0131,0.0033,0.0024,-2.1792,20.1743,-43.8214,
7.3520,-0.0051,-0.0404,1.0290,0.0036,0.0266,0.0375,0.0131,0.0033,0.0024,-2.1792,20.1743,-43.8214,
7.3530,-0.0012,-0.0393,1.0250,0.0036,0.0266,0.0375,0.0131,0.0033,0.0024,-2.1792,20.1743,-43.8214,
7.3540,-0.0012,-0.0393,1.0250,0.0036,0.0266,0.0375,0.0140,0.0060,0.0024,-2.1792,20.1743,-43.8214,
7.3550,-0.0004,-0.0384,1.0285,0.0036,0.0266,0.0375,0.0140,0.0060,0.0024,-2.1792,20.1743,-43.8214,
7.3580,-0.0004,-0.0384,1.0285,0.0036,0.0266,0.0375,0.0140,0.0060,0.0024,-2.1650,20.1920,-43.8969,
7.3800,-0.0038,-0.0373,1.0326,0.0036,0.0266,0.0375,0.0140,0.0060,0.0024,-2.1650,20.1920,-43.8969,
7.4120,-0.0038,-0.0373,1.0326,-0.0112,-0.0453,0.0164,0.0140,0.0060,0.0024,-2.1650,20.1920,-43.8969,
7.4130,-0.0038,-0.0373,1.0326,-0.0112,-0.0453,0.0164,0.0302,-0.0038,-0.0015,-2.1650,20.1920,-43.8969,
7.4140,-0.0033,-0.0354,1.0155,-0.0112,-0.0453,0.0164,0.0302,-0.0038,-0.0015,-2.1650,20.1920,-43.8969,
7.4140,-0.0057,-0.0305,1.0186,-0.0112,-0.0453,0.0164,0.0302,-0.0038,-0.0015,-2.1650,20.1920,-43.8969,
7.4230,-0.0057,-0.0305,1.0186,-0.0112,-0.0453,0.0164,0.0302,-0.0038,-0.0015,-2.2016,20.1904,-43.8982,
7.4470,-0.0018,-0.0325,0.9896,-0.0112,-0.0453,0.0164,0.0302,-0.0038,-0.0015,-2.2016,20.1904,-43.8982,
7.4480,-0.0018,-0.0325,0.9896,-0.0112,-0.0453,0.0164,0.0033,-0.0026,0.0030,-2.2016,20.1904,-43.8982,
7.4900,0.0009,-0.0348,1.0619,-0.0112,-0.0453,0.0164,0.0033,-0.0026,0.0030,-2.2016,20.1904,-43.8982,
7.4910,0.0009,-0.0348,1.0619,-0.0112,-0.0453,0.0164,0.0100,0.0014,-0.0009,-2.2016,20.1904,-43.8982,
7.4920,0.0009,-0.0348,1.0619,-0.0207,0.0073,-0.0941,0.0100,0.0014,-0.0009,-2.2016,20.1904,-43.8982,
7.4930,-0.0070,-0.0310,1.0175,-0.0207,0.0073,-0.0941,0.0100,0.0014,-0.0009,-2.2016,20.1904,-43.8982,
7.4940,-0.0071,-0.0289,1.0186,-0.0207,0.0073,-0.0941,0.0100,0.0014,-0.0009,-2.2016,20.1904,-43.8982,
7.4940,-0.0071,-0.0289,1.0186,-0.0207,0.0073,-0.0941,0.0100,0.0014,-0.0009,-2.1893,20.1685,-43.9891,
7.5120,-0.0006,-0.0268,1.0329,-0.0207,0.0073,-0.0941,0.0100,0.0014,-0.0009,-2.1893,20.1685,-43.9891,
7.5140,-0.0006,-0.0268,1.0329,-0.0207,0.0073,-0.0941,0.0143,-0.0016,-0.0006,-2.1893,20.1685,-43.9891,
7.5490,-0.0006,-0.0268,1.0329,-0.0142,0.0150,0.0413,0.0143,-0.0016,-0.0006,-2.1893,20.1685,-43.9891,
7.5500,-0.0006,-0.0268,1.0329,-0.0142,0.0150,0.0413,0.0134,-0.0019,-0.0003,-2.1893,20.1685,-43.9891,
7.5510,-0.0002,-0.0282,1.0238,-0.0142,0.0150,0.0413,0.0134,-0.0019,-0.0003,-2.1893,20.1685,-43.9891,
7.5510,-0.0015,-0.0312,1.0318,-0.0142,0.0150,0.0413,0.0134,-0.0019,-0.0003,-2.1893,20.1685,-43.9891,
7.5580,-0.0015,-0.0312,1.0318,-0.0142,0.0150,0.0413,0.0134,-0.0019,-0.0003,-2.2900,20.1052,-43.9966,
7.5790,-0.0051,-0.0328,1.0235,-0.0142,0.0150,0.0413,0.0134,-0.0019,-0.0003,-2.2900,20.1052,-43.9966,
7.6250,-0.0027,-0.0333,1.0124,-0.0142,0.0150,0.0413,0.0134,-0.0019,-0.0003,-2.2900,20.1052,-43.9966,
7.6260,-0.0027,-0.0333,1.0124,-0.0142,0.0150,0.0413,0.0134,-0.0019,-0.0003,-2.3290,20.0431,-44.0532,
7.6270,-0.0027,-0.0333,1.0124,-0.0142,0.0150,0.0413,0.0158,-0.0077,0.0015,-2.3290,20.0431,-44.0532,
7.6280,-0.0043,-0.0338,1.0192,-0.0142,0.0150,0.0413,0.0158,-0.0077,0.0015,-2.3290,20.0431,-44.0532,
7.6280,-0.0043,-0.0338,1.0192,-0.0142,0.0150,0.0413,0.0030,-0.0001,-0.0025,-2.3290,20.0431,-44.0532,
7.6290,-0.0031,-0.0345,1.0317,-0.0142,0.0150,0.0413,0.0030,-0.0001,-0.0025,-2.3290,20.0431,-44.0532,
7.6300,-0.0031,-0.0345,1.0317,0.0011,0.0343,0.0418,0.0030,-0.0001,-0.0025,-2.3290,20.0431,-44.0532,
7.6450,-0.0024,-0.0325,1.0227,0.0011,0.0343,0.0418,0.0030,-0.0001,-0.0025,-2.3290,20.0431,-44.0532,
7.6840,-0.0024,-0.0325,1.0227,0.0011,0.0343,0.0418,0.0158,-0.0016,-0.0052,-2.3290,20.0431,-44.0532,
7.6850,-0.0039,-0.0317,1.0207,0.0011,0.0343,0.0418,0.0158,-0.0016,-0.0052,-2.3290,20.0431,-44.0532,
7.6850,-0.0043,-0.0315,1.0252,0.0011,0.0343,0.0418,0.0158,-0.0016,-0.0052,-2.3290,20.0431,-44.0532,
7.6860,-0.0043,-0.0315,1.0252,-0.0111,-0.0217,-0.0461,0.0158,-0.0016,-0.0052,-2.3290,20.0431,-44.0532,
7.6910,-0.0043,-0.0315,1.0252,-0.0111,-0.0217,-0.0461,0.0158,-0.0016,-0.0052,-2.3044,20.0327,-44.1043,
7.7120,-0.0043,-0.0315,1.0252,-0.0111,-0.0217,-0.0461,0.0094,-0.0013,-0.0034,-2.3044,20.0327,-44.1043,
7.7140,-0.0040,-0.0309,1.0217,-0.0111,-0.0217,-0.0461,0.0094,-0.0013,-0.0034,-2.3044,20.0327,-44.1043,
7.7580,-0.0034,-0.0292,1.0242,-0.0111,-0.0217,-0.0461,0.0094,-0.0013,-0.0034,-2.3044,20.0327,-44.1043,
7.7610,-0.0034,-0.0292,1.0242,-0.0111,-0.0217,-0.0461,0.0036,-0.0041,-0.0028,-2.3044,20.0327,-44.1043,
7.7620,-0.0034,-0.0292,1.0242,-0.0111,-0.0217,-0.0461,0.0036,-0.0041,-0.0028,-2.3671,19.9900,-44.1349,
7.7630,-0.0044,-0.0274,1.0283,-0.0111,-0.0217,-0.0461,0.0036,-0.0041,-0.0028,-2.3671,19.9900,-44.1349,
7.7630,-0.0024,-0.0254,1.0245,-0.0111,-0.0217,-0.0461,0.0036,-0.0041,-0.0028,-2.3671,19.9900,-44.1349,
7.7640,-0.0024,-0.0254,1.0245,-0.0173,-0.0027,-0.0193,0.0036,-0.0041,-0.0028,-2.3671,19.9900,-44.1349,
7.8210,-0.0024,-0.0254,1.0245,-0.0173,-0.0027,-0.0193,0.0128,-0.0077,-0.0040,-2.3671,19.9900,-44.1349,
7.8220,-0.0024,-0.0254,1.0245,-0.0173,-0.0027,-0.0193,0.0036,-0.0071,-0.0034,-2.3671,19.9900,-44.1349,
7.8220,-0.0024,-0.0254,1.0245,-0.0187,0.0264,0.0019,0.0036,-0.0071,-0.0034,-2.3671,19.9900,-44.1349,
7.8230,-0.0018,-0.0259,1.0207,-0.0187,0.0264,0.0019,0.0036,-0.0071,-0.0034,-2.3671,19.9900,-44.1349,
7.8230,-0.0016,-0.0283,1.0229,-0.0187,0.0264,0.0019,0.0036,-0.0071,-0.0034,-2.3671,19.9900,-44.1349,
7.8240,-0.0018,-0.0274,1.0252,-0.0187,0.0264,0.0019,0.0036,-0.0071,-0.0034,-2.3671,19.9900,-44.1349,
7.8240,-0.0018,-0.0274,1.0252,-0.0187,0.0264,0.0019,0.0036,-0.0071,-0.0034,-2.4315,19.9181,-44.1545,
7.8450,-0.0015,-0.0278,1.0289,-0.0187,0.0264,0.0019,0.0036,-0.0071,-0.0034,-2.4315,19.9181,-44.1545,
7.8910,-0.0015,-0.0278,1.0289,-0.0187,0.0264,0.0019,0.0097,-0.0065,-0.0003,-2.4315,19.9181,-44.1545,
7.8930,0.0007,-0.0296,1.0236,-0.0187,0.0264,0.0019,0.0097,-0.0065,-0.0003,-2.4315,19.9181,-44.1545,
7.8940,0.0007,-0.0296,1.0236,-0.0187,0.0264,0.0019,0.0097,-0.0065,-0.0003,-2.4834,19.8570,-44.1601,
7.8950,-0.0023,-0.0309,1.0194,-0.0187,0.0264,0.0019,0.0097,-0.0065,-0.0003,-2.4834,19.8570,-44.1601,
7.9030,-0.0023,-0.0309,1.0194,-0.0187,0.0264,0.0019,0.0070,-0.0053,-0.0043,-2.4834,19.8570,-44.1601,
7.9040,-0.0015,-0.0296,1.0156,-0.0187,0.0264,0.0019,0.0070,-0.0053,-0.0043,-2.4834,19.8570,-44.1601,
7.9050,-0.0015,-0.0296,1.0156,-0.0076,0.0254,-0.0085,0.0070,-0.0053,-0.0043,-2.4834,19.8570,-44.1601,
7.9590,-0.0015,-0.0296,1.0156,-0.0027,-0.0049,-0.0341,0.0070,-0.0053,-0.0043,-2.4834,19.8570,-44.1601,
7.9610,-0.0015,-0.0296,1.0156,-0.0027,-0.0049,-0.0341,0.0048,-0.0114,-0.0049,-2.4834,19.8570,-44.1601,
7.9610,-0.0029,-0.0292,1.0318,-0.0027,-0.0049,-0.0341,0.0048,-0.0114,-0.0049,-2.4834,19.8570,-44.1601,
7.9620,-0.0020,-0.0273,1.0387,-0.0027,-0.0049,-0.0341,0.0048,-0.0114,-0.0049,-2.4834,19.8570,-44.1601,
7.9630,-0.0015,-0.0242,1.0020,-0.0027,-0.0049,-0.0341,0.0048,-0.0114,-0.0049,-2.4834,19.8570,-44.1601,
7.9640,-0.0015,-0.0242,1.0020,-0.0027,-0.0049,-0.0341,0.0048,-0.0114,-0.0049,-2.4629,19.7902,-44.1378,
7.9790,-0.0015,-0.0242,1.0020,-0.0027,-0.0049,-0.0341,-0.0052,-0.0019,-0.0049,-2.4629,19.7902,-44.1378,
7.9800,-0.0027,-0.0267,0.9982,-0.0027,-0.0049,-0.0341,-0.0052,-0.0019,-0.0049,-2.4629,19.7902,-44.1378,
8.0240,-0.0027,-0.0267,0.9982,-0.0027,-0.0049,-0.0341,-0.0083,0.0231,-0.0018,-2.4629,19.7902,-44.1378,
8.0260,-0.0002,-0.0323,1.0475,-0.0027,-0.0049,-0.0341,-0.0083,0.0231,-0.0018,-2.4629,19.7902,-44.1378,
8.0270,-0.0035,-0.0300,1.0490,-0.0027,-0.0049,-0.0341,-0.0083,0.0231,-0.0018,-2.4629,19.7902,-44.1378,
8.0280,-0.0035,-0.0300,1.0490,-0.0027,-0.0049,-0.0341,-0.0083,0.0231,-0.0018,-2.4758,19.7802,-44.1261,
8.0360,-0.0035,-0.0300,1.0490,-0.0128,0.0281,-0.0259,-0.0083,0.0231,-0.0018,-2.4758,19.7802,-44.1261,
8.0380,-0.0064,-0.0249,1.0020,-0.0128,0.0281,-0.0259,-0.0083,0.0231,-0.0018,-2.4758,19.7802,-44.1261,
8.0940,-0.0064,-0.0249,1.0020,-0.0128,0.0281,-0.0259,-0.0110,-0.0361,0.0015,-2.4758,19.7802,-44.1261,
8.0960,-0.0017,-0.0299,1.0255,-0.0128,0.0281,-0.0259,-0.0110,-0.0361,0.0015,-2.4758,19.7802,-44.1261,
8.0970,0.0022,-0.0304,1.0446,-0.0128,0.0281,-0.0259,-0.0110,-0.0361,0.0015,-2.4758,19.7802,-44.1261,
8.0970,0.0022,-0.0304,1.0446,-0.0128,0.0281,-0.0259,-0.0110,-0.0361,0.0015,-2.4636,19.7697,-44.1648,
8.0990,0.0012,-0.0229,1.0188,-0.0128,0.0281,-0.0259,-0.0110,-0.0361,0.0015,-2.4636,19.7697,-44.1648,
8.0990,0.0012,-0.0229,1.0188,-0.0128,0.0281,-0.0259,0.0253,-0.0178,-0.0006,-2.4636,19.7697,-44.1648,
8.1000,0.0012,-0.0229,1.0188,-0.0322,0.0020,0.0270,0.0253,-0.0178,-0.0006,-2.4636,19.7697,-44.1648,
8.1130,0.0002,-0.0158,1.0189,-0.0322,0.0020,0.0270,0.0253,-0.0178,-0.0006,-2.4636,19.7697,-44.1648,
8.1580,0.0002,-0.0158,1.0189,-0.0322,0.0020,0.0270,-0.0101,-0.0044,0.0021,-2.4636,19.7697,-44.1648,
8.1600,0.0002,-0.0158,1.0189,-0.0322,0.0020,0.0270,-0.0101,-0.0044,0.0021,-2.4402,19.7622,-44.1259,
8.1610,0.0032,-0.0150,1.0266,-0.0322,0.0020,0.0270,-0.0101,-0.0044,0.0021,-2.4402,19.7622,-44.1259,
8.1610,0.0005,-0.0235,1.0258,-0.0322,0.0020,0.0270,-0.0101,-0.0044,0.0021,-2.4402,19.7622,-44.1259,
8.1710,0.0005,-0.0235,1.0258,0.0040,0.0385,0.0302,-0.0101,-0.0044,0.0021,-2.4402,19.7622,-44.1259,
8.1730,-0.0042,-0.0331,1.0274,0.0040,0.0385,0.0302,-0.0101,-0.0044,0.0021,-2.4402,19.7622,-44.1259,
8.1730,-0.0042,-0.0331,1.0274,0.0040,0.0385,0.0302,-0.0248,0.0023,0.0040,-2.4402,19.7622,-44.1259,
8.2260,-0.0032,-0.0369,1.0258,0.0040,0.0385,0.0302,-0.0248,0.0023,0.0040,-2.4402,19.7622,-44.1259,
8.2280,-0.0032,-0.0369,1.0258,0.0040,0.0385,0.0302,-0.0248,0.0023,0.0040,-2.4905,19.7416,-44.0904,
8.2290,-0.0016,-0.0334,1.0249,0.0040,0.0385,0.0302,-0.0248,0.0023,0.0040,-2.4905,19.7416,-44.0904,
8.2290,-0.0016,-0.0334,1.0249,0.0040,0.0385,0.0302,-0.0113,-0.0029,0.0046,-2.4905,19.7416,-44.0904,
8.2300,-0.0000,-0.0315,1.0230,0.0040,0.0385,0.0302,-0.0113,-0.0029,0.0046,-2.4905,19.7416,-44.0904,
8.2310,-0.0000,-0.0315,1.0230,-0.0031,0.0729,0.0109,-0.0113,-0.0029,0.0046,-2.4905,19.7416,-44.0904,
8.2940,0.0002,-0.0323,1.0284,-0.0031,0.0729,0.0109,-0.0113,-0.0029,0.0046,-2.4905,19.7416,-44.0904,
8.2960,0.0002,-0.0323,1.0284,-0.0031,0.0729,0.0109,-0.0190,-0.0074,0.0049,-2.4905,19.7416,-44.0904,
8.2970,0.0002,-0.0323,1.0284,-0.0031,0.0729,0.0109,-0.0184,-0.0096,0.0046,-2.4905,19.7416,-44.0904,
8.2970,0.0005,-0.0318,1.0290,-0.0031,0.0729,0.0109,-0.0184,-0.0096,0.0046,-2.4905,19.7416,-44.0904,
8.2980,0.0009,-0.0294,1.0210,-0.0031,0.0729,0.0109,-0.0184,-0.0096,0.0046,-2.4905,19.7416,-44.0904,
8.2980,0.0009,-0.0294,1.0210,-0.0031,0.0729,0.0109,-0.0184,-0.0096,0.0046,-2.5257,19.7698,-44.0771,
8.3080,0.0009,-0.0294,1.0210,-0.0202,-0.0199,0.0012,-0.0184,-0.0096,0.0046,-2.5257,19.7698,-44.0771,
8.3100,-0.0011,-0.0265,1.0261,-0.0202,-0.0199,0.0012,-0.0184,-0.0096,0.0046,-2.5257,19.7698,-44.0771,
8.3580,-0.0011,-0.0265,1.0261,-0.0202,-0.0199,0.0012,-0.0281,-0.0068,0.0061,-2.5257,19.7698,-44.0771,
8.3590,0.0028,-0.0299,1.0081,-0.0202,-0.0199,0.0012,-0.0281,-0.0068,0.0061,-2.5257,19.7698,-44.0771,
8.3600,0.0023,-0.0328,1.0525,-0.0202,-0.0199,0.0012,-0.0281,-0.0068,0.0061,-2.5257,19.7698,-44.0771,
8.3600,0.0023,-0.0328,1.0525,-0.0202,-0.0199,0.0012,-0.0281,-0.0068,0.0061,-2.4737,19.8195,-44.1235,
8.3690,0.0023,-0.0328,1.0525,-0.0202,-0.0199,0.0012,-0.0083,-0.0059,0.0033,-2.4737,19.8195,-44.1235,
8.3700,-0.0012,-0.0290,1.0168,-0.0202,-0.0199,0.0012,-0.0083,-0.0059,0.0033,-2.4737,19.8195,-44.1235,
8.3700,-0.0012,-0.0290,1.0168,-0.0078,0.0265,0.0118,-0.0083,-0.0059,0.0033,-2.4737,19.8195,-44.1235,
8.4280,0.0002,-0.0261,1.0200,-0.0078,0.0265,0.0118,-0.0083,-0.0059,0.0033,-2.4737,19.8195,-44.1235,
8.4290,0.0002,-0.0261,1.0200,-0.0078,0.0265,0.0118,-0.0092,0.0023,0.0049,-2.4737,19.8195,-44.1235,
8.4300,0.0023,-0.0263,1.0308,-0.0078,0.0265,0.0118,-0.0092,0.0023,0.0049,-2.4737,19.8195,-44.1235,
8.4310,0.0023,-0.0263,1.0308,-0.0078,0.0265,0.0118,-0.0092,0.0023,0.0049,-2.4469,19.8701,-44.1066,
8.4450,0.0023,-0.0263,1.0308,0.0028,0.0287,-0.0036,-0.0092,0.0023,0.0049,-2.4469,19.8701,-44.1066,
8.4470,0.0029,-0.0271,1.0252,0.0028,0.0287,-0.0036,-0.0092,0.0023,0.0049,-2.4469,19.8701,-44.1066,
8.4470,0.0029,-0.0271,1.0252,0.0028,0.0287,-0.0036,-0.0104,0.0008,0.0058,-2.4469,19.8701,-44.1066,
8.4480,0.0016,-0.0318,1.0313,0.0028,0.0287,-0.0036,-0.0104,0.0008,0.0058,-2.4469,19.8701,-44.1066,
8.4920,-0.0010,-0.0353,1.0286,0.0028,0.0287,-0.0036,-0.0104,0.0008,0.0058,-2.4469,19.8701,-44.1066,
8.4940,0.0002,-0.0349,1.0131,0.0028,0.0287,-0.0036,-0.0104,0.0008,0.0058,-2.4469,19.8701,-44.1066,
8.4960,0.0002,-0.0349,1.0131,0.0028,0.0287,-0.0036,-0.0104,0.0008,0.0058,-2.4313,19.9397,-44.0889,
8.4970,0.0002,-0.0349,1.0131,0.0028,0.0287,-0.0036,-0.0037,-0.0071,0.0043,-2.4313,19.9397,-44.0889,
8.5040,0.0009,-0.0361,1.0239,0.0028,0.0287,-0.0036,-0.0037,-0.0071,0.0043,-2.4313,19.9397,-44.0889,
8.5070,0.0009,-0.0361,1.0239,0.0083,0.0477,0.0317,-0.0037,-0.0071,0.0043,-2.4313,19.9397,-44.0889,
8.5590,0.0009,-0.0361,1.0239,0.0083,0.0477,0.0317,-0.0178,-0.0001,0.0030,-2.4313,19.9397,-44.0889,
8.5610,0.0007,-0.0378,1.0227,0.0083,0.0477,0.0317,-0.0178,-0.0001,0.0030,-2.4313,19.9397,-44.0889,
8.5620,0.0017,-0.0361,1.0224,0.0083,0.0477,0.0317,-0.0178,-0.0001,0.0030,-2.4313,19.9397,-44.0889,
8.5630,0.0017,-0.0361,1.0224,0.0083,0.0477,0.0317,-0.0178,-0.0001,0.0030,-2.4193,19.9407,-44.0756,
8.5790,-0.0002,-0.0351,1.0227,0.0083,0.0477,0.0317,-0.0178,-0.0001,0.0030,-2.4193,19.9407,-44.0756,
8.5810,-0.0002,-0.0351,1.0227,0.0083,0.0477,0.0317,-0.0153,0.0048,0.0021,-2.4193,19.9407,-44.0756,
8.5810,-0.0010,-0.0350,1.0308,0.0083,0.0477,0.0317,-0.0153,0.0048,0.0021,-2.4193,19.9407,-44.0756,
8.5820,-0.0010,-0.0350,1.0308,-0.0066,-0.0157,-0.0278,-0.0153,0.0048,0.0021,-2.4193,19.9407,-44.0756,
8.6250,-0.0010,-0.0350,1.0308,-0.0066,-0.0157,-0.0278,-0.0153,0.0048,0.0021,-2.4164,20.0110,-44.0197,
8.6260,-0.0010,-0.0336,1.0230,-0.0066,-0.0157,-0.0278,-0.0153,0.0048,0.0021,-2.4164,20.0110,-44.0197,
8.6270,-0.0013,-0.0318,1.0245,-0.0066,-0.0157,-0.0278,-0.0153,0.0048,0.0021,-2.4164,20.0110,-44.0197,
8.6280,-0.0013,-0.0318,1.0245,-0.0066,-0.0157,-0.0278,-0.0135,0.0014,0.0030,-2.4164,20.0110,-44.0197,
8.6390,-0.0013,-0.0318,1.0245,-0.0059,-0.0061,0.0023,-0.0135,0.0014,0.0030,-2.4164,20.0110,-44.0197,
8.6400,0.0002,-0.0295,1.0278,-0.0059,-0.0061,0.0023,-0.0135,0.0014,0.0030,-2.4164,20.0110,-44.0197,
8.6410,0.0002,-0.0295,1.0278,-0.0059,-0.0061,0.0023,-0.0116,-0.0013,0.0033,-2.4164,20.0110,-44.0197,
8.6940,0.0019,-0.0304,1.0271,-0.0059,-0.0061,0.0023,-0.0116,-0.0013,0.0033,-2.4164,20.0110,-44.0197,
8.6960,0.0019,-0.0304,1.0271,-0.0059,-0.0061,0.0023,-0.0095,-0.0019,0.0030,-2.4164,20.0110,-44.0197,
8.6960,0.0028,-0.0307,1.0256,-0.0059,-0.0061,0.0023,-0.0095,-0.0019,0.0030,-2.4164,20.0110,-44.0197,
8.6970,0.0028,-0.0307,1.0256,-0.0059,-0.0061,0.0023,-0.0095,-0.0019,0.0030,-2.4260,20.0596,-44.0170,
8.7120,0.0017,-0.0323,1.0256,-0.0059,-0.0061,0.0023,-0.0095,-0.0019,0.0030,-2.4260,20.0596,-44.0170,
8.7170,0.0017,-0.0323,1.0256,-0.0059,-0.0061,0.0023,-0.0092,-0.0001,0.0030,-2.4260,20.0596,-44.0170,
8.7180,0.0017,-0.0323,1.0256,-0.0111,0.0371,0.0059,-0.0092,-0.0001,0.0030,-2.4260,20.0596,-44.0170,
8.7190,0.0011,-0.0347,1.0274,-0.0111,0.0371,0.0059,-0.0092,-0.0001,0.0030,-2.4260,20.0596,-44.0170,
8.7580,0.0011,-0.0347,1.0274,-0.0111,0.0371,0.0059,-0.0092,-0.0001,0.0030,-2.3867,20.1209,-43.9861,
8.7590,0.0011,-0.0347,1.0274,-0.0111,0.0371,0.0059,-0.0083,0.0026,0.0018,-2.3867,20.1209,-43.9861,
8.7600,0.0002,-0.0354,1.0210,-0.0111,0.0371,0.0059,-0.0083,0.0026,0.0018,-2.3867,20.1209,-43.9861,
8.7610,0.0006,-0.0367,1.0242,-0.0111,0.0371,0.0059,-0.0083,0.0026,0.0018,-2.3867,20.1209,-43.9861,
8.7780,0.0006,-0.0367,1.0242,0.0128,0.0323,0.0130,-0.0083,0.0026,0.0018,-2.3867,20.1209,-43.9861,
8.7800,0.0012,-0.0371,1.0228,0.0128,0.0323,0.0130,-0.0083,0.0026,0.0018,-2.3867,20.1209,-43.9861,
8.8240,0.0012,-0.0371,1.0228,0.0128,0.0323,0.0130,-0.0126,0.0054,0.0024,-2.3867,20.1209,-43.9861,
8.8260,0.0010,-0.0395,1.0227,0.0128,0.0323,0.0130,-0.0126,0.0054,0.0024,-2.3867,20.1209,-43.9861,
8.8260,-0.0002,-0.0391,1.0299,0.0128,0.0323,0.0130,-0.0126,0.0054,0.0024,-2.3867,20.1209,-43.9861,
8.8270,-0.0002,-0.0391,1.0299,0.0128,0.0323,0.0130,-0.0126,0.0054,0.0024,-2.3252,20.1335,-43.9832,
8.8470,-0.0021,-0.0344,1.0242,0.0128,0.0323,0.0130,-0.0126,0.0054,0.0024,-2.3252,20.1335,-43.9832,
8.8480,-0.0021,-0.0344,1.0242,0.0128,0.0323,0.0130,-0.0129,0.0002,0.0036,-2.3252,20.1335,-43.9832,
8.8550,-0.0021,-0.0344,1.0242,0.0023,0.0003,-0.0215,-0.0129,0.0002,0.0036,-2.3252,20.1335,-43.9832,
8.8560,-0.0032,-0.0332,1.0086,0.0023,0.0003,-0.0215,-0.0129,0.0002,0.0036,-2.3252,20.1335,-43.9832,
8.8910,-0.0032,-0.0332,1.0086,0.0023,0.0003,-0.0215,-0.0404,0.0191,0.0073,-2.3252,20.1335,-43.9832,
8.8920,-0.0027,-0.0365,0.9968,0.0023,0.0003,-0.0215,-0.0404,0.0191,0.0073,-2.3252,20.1335,-43.9832,
8.8930,-0.0027,-0.0365,0.9968,0.0023,0.0003,-0.0215,-0.0404,0.0191,0.0073,-2.3256,20.1347,-43.9446,
8.9130,0.0049,-0.0439,1.0652,0.0023,0.0003,-0.0215,-0.0404,0.0191,0.0073,-2.3256,20.1347,-43.9446,
8.9140,-0.0033,-0.0404,1.0337,0.0023,0.0003,-0.0215,-0.0404,0.0191,0.0073,-2.3256,20.1347,-43.9446,
8.9140,-0.0033,-0.0404,1.0337,-0.0125,0.0232,-0.0279,-0.0404,0.0191,0.0073,-2.3256,20.1347,-43.9446,
8.9150,-0.0033,-0.0404,1.0337,-0.0125,0.0232,-0.0279,-0.0242,0.0072,0.0018,-2.3256,20.1347,-43.9446,
8.9580,-0.0033,-0.0404,1.0337,-0.0125,0.0232,-0.0279,-0.0052,-0.0233,0.0012,-2.3256,20.1347,-43.9446,
8.9600,-0.0033,-0.0404,1.0337,-0.0125,0.0232,-0.0279,-0.0052,-0.0233,0.0012,-2.2890,20.1473,-43.9040,
8.9610,-0.0038,-0.0366,1.0139,-0.0125,0.0232,-0.0279,-0.0052,-0.0233,0.0012,-2.2890,20.1473,-43.9040,
8.9610,-0.0010,-0.0370,1.0406,-0.0125,0.0232,-0.0279,-0.0052,-0.0233,0.0012,-2.2890,20.1473,-43.9040,
8.9790,0.0024,-0.0325,1.0186,-0.0125,0.0232,-0.0279,-0.0052,-0.0233,0.0012,-2.2890,20.1473,-43.9040,
8.9910,0.0011,-0.0281,1.0090,-0.0125,0.0232,-0.0279,-0.0052,-0.0233,0.0012,-2.2890,20.1473,-43.9040,
8.9920,0.0011,-0.0281,1.0090,-0.0125,0.0232,-0.0279,0.0186,-0.0087,0.0006,-2.2890,20.1473,-43.9040,
8.9930,0.0011,-0.0281,1.0090,-0.0126,-0.0154,0.0395,0.0186,-0.0087,0.0006,-2.2890,20.1473,-43.9040,
9.0240,0.0015,-0.0288,1.0326,-0.0126,-0.0154,0.0395,0.0186,-0.0087,0.0006,-2.2890,20.1473,-43.9040,
9.0260,0.0015,-0.0288,1.0326,-0.0126,-0.0154,0.0395,0.0186,-0.0087,0.0006,-2.3129,20.1560,-43.9043,
9.0460,0.0039,-0.0317,1.0301,-0.0126,-0.0154,0.0395,0.0186,-0.0087,0.0006,-2.3129,20.1560,-43.9043,
9.0470,0.0039,-0.0317,1.0301,-0.0126,-0.0154,0.0395,-0.0242,0.0036,0.0049,-2.3129,20.1560,-43.9043,
9.0500,0.0039,-0.0317,1.0301,-0.0008,0.0547,-0.0235,-0.0242,0.0036,0.0049,-2.3129,20.1560,-43.9043,
9.0510,-0.0018,-0.0382,1.0286,-0.0008,0.0547,-0.0235,-0.0242,0.0036,0.0049,-2.3129,20.1560,-43.9043,
9.0920,-0.0018,-0.0382,1.0286,-0.0008,0.0547,-0.0235,-0.0077,0.0033,0.0049,-2.3129,20.1560,-43.9043,
9.0930,-0.0048,-0.0437,1.0217,-0.0008,0.0547,-0.0235,-0.0077,0.0033,0.0049,-2.3129,20.1560,-43.9043,
9.0940,-0.0033,-0.0444,1.0213,-0.0008,0.0547,-0.0235,-0.0077,0.0033,0.0049,-2.3129,20.1560,-43.9043,
9.0950,-0.0033,-0.0444,1.0213,-0.0008,0.0547,-0.0235,-0.0077,0.0033,0.0049,-2.3612,20.1747,-43.8663,
9.1120,-0.0004,-0.0452,1.0290,-0.0008,0.0547,-0.0235,-0.0077,0.0033,0.0049,-2.3612,20.1747,-43.8663,
9.1130,-0.0004,-0.0452,1.0290,-0.0008,0.0547,-0.0235,-0.0144,0.0029,0.0049,-2.3612,20.1747,-43.8663,
9.1280,-0.0004,-0.0452,1.0290,0.0020,0.0451,0.0472,-0.0144,0.0029,0.0049,-2.3612,20.1747,-43.8663,
9.1290,-0.0017,-0.0447,1.0264,0.0020,0.0451,0.0472,-0.0144,0.0029,0.0049,-2.3612,20.1747,-43.8663,
9.1570,-0.0006,-0.0453,1.0308,0.0020,0.0451,0.0472,-0.0144,0.0029,0.0049,-2.3612,20.1747,-43.8663,
9.1580,-0.0006,-0.0453,1.0308,0.0020,0.0451,0.0472,-0.0144,-0.0032,0.0043,-2.3612,20.1747,-43.8663,
9.1580,-0.0006,-0.0453,1.0308,0.0020,0.0451,0.0472,-0.0144,-0.0032,0.0043,-2.3616,20.1759,-43.8277,
9.1780,0.0004,-0.0426,1.0179,0.0020,0.0451,0.0472,-0.0144,-0.0032,0.0043,-2.3616,20.1759,-43.8277,
9.1860,0.0004,-0.0426,1.0179,0.0020,0.0451,0.0472,-0.0141,-0.0065,0.0018,-2.3616,20.1759,-43.8277,
9.1860,0.0004,-0.0426,1.0179,-0.0246,-0.0399,-0.0042,-0.0141,-0.0065,0.0018,-2.3616,20.1759,-43.8277,
9.1870,0.0007,-0.0383,1.0395,-0.0246,-0.0399,-0.0042,-0.0141,-0.0065,0.0018,-2.3616,20.1759,-43.8277,
9.2250,0.0007,-0.0383,1.0395,-0.0246,-0.0399,-0.0042,-0.0141,-0.0065,0.0018,-2.3371,20.1876,-43.8004,
9.2270,0.0005,-0.0381,0.9953,-0.0246,-0.0399,-0.0042,-0.0141,-0.0065,0.0018,-2.3371,20.1876,-43.8004,
9.2450,0.0029,-0.0406,1.0280,-0.0246,-0.0399,-0.0042,-0.0141,-0.0065,0.0018,-2.3371,20.1876,-43.8004,
9.2470,-0.0000,-0.0386,1.0479,-0.0246,-0.0399,-0.0042,-0.0141,-0.0065,0.0018,-2.3371,20.1876,-43.8004,
9.2480,-0.0000,-0.0386,1.0479,-0.0246,-0.0399,-0.0042,-0.0352,0.0042,0.0046,-2.3371,20.1876,-43.8004,
9.2640,-0.0028,-0.0338,1.0141,-0.0246,-0.0399,-0.0042,-0.0352,0.0042,0.0046,-2.3371,20.1876,-43.8004,
9.2640,-0.0028,-0.0338,1.0141,-0.0246,-0.0399,-0.0042,-0.0003,-0.0059,-0.0031,-2.3371,20.1876,-43.8004,
9.2650,-0.0028,-0.0338,1.0141,-0.0025,0.0044,0.0077,-0.0003,-0.0059,-0.0031,-2.3371,20.1876,-43.8004,
9.2900,0.0002,-0.0325,1.0285,-0.0025,0.0044,0.0077,-0.0003,-0.0059,-0.0031,-2.3371,20.1876,-43.8004,
9.2910,0.0002,-0.0325,1.0285,-0.0025,0.0044,0.0077,-0.0003,-0.0059,-0.0031,-2.2901,20.1722,-43.7355,
9.3130,0.0033,-0.0336,1.0296,-0.0025,0.0044,0.0077,-0.0003,-0.0059,-0.0031,-2.2901,20.1722,-43.7355,
9.3150,0.0033,-0.0336,1.0296,-0.0025,0.0044,0.0077,-0.0055,0.0023,0.0033,-2.2901,20.1722,-43.7355,
9.3230,-0.0004,-0.0391,1.0280,-0.0025,0.0044,0.0077,-0.0055,0.0023,0.0033,-2.2901,20.1722,-43.7355,
9.3230,-0.0004,-0.0391,1.0280,0.0053,0.0367,-0.0086,-0.0055,0.0023,0.0033,-2.2901,20.1722,-43.7355,
9.3570,-0.0038,-0.0439,1.0374,0.0053,0.0367,-0.0086,-0.0055,0.0023,0.0033,-2.2901,20.1722,-43.7355,
9.3590,-0.0038,-0.0439,1.0374,0.0053,0.0367,-0.0086,-0.0025,0.0088,0.0043,-2.2901,20.1722,-43.7355,
9.3600,-0.0038,-0.0439,1.0374,0.0053,0.0367,-0.0086,-0.0025,0.0088,0.0043,-2.2149,20.2257,-43.6910,
9.3790,-0.0032,-0.0436,1.0153,0.0053,0.0367,-0.0086,-0.0025,0.0088,0.0043,-2.2149,20.2257,-43.6910,
9.4000,-0.0032,-0.0436,1.0153,0.0041,0.0455,0.0507,-0.0025,0.0088,0.0043,-2.2149,20.2257,-43.6910,
9.4020,-0.0015,-0.0449,1.0244,0.0041,0.0455,0.0507,-0.0025,0.0088,0.0043,-2.2149,20.2257,-43.6910,
9.4020,-0.0022,-0.0470,1.0261,0.0041,0.0455,0.0507,-0.0025,0.0088,0.0043,-2.2149,20.2257,-43.6910,
9.4030,-0.0022,-0.0470,1.0261,0.0041,0.0455,0.0507,0.0009,-0.0001,0.0024,-2.2149,20.2257,-43.6910,
9.4240,-0.0022,-0.0470,1.0261,0.0041,0.0455,0.0507,0.0052,-0.0016,0.0024,-2.2149,20.2257,-43.6910,
9.4250,-0.0010,-0.0460,1.0241,0.0041,0.0455,0.0507,0.0052,-0.0016,0.0024,-2.2149,20.2257,-43.6910,
9.4260,-0.0010,-0.0460,1.0241,0.0041,0.0455,0.0507,0.0052,-0.0016,0.0024,-2.1501,20.3078,-43.6579,
9.4460,0.0005,-0.0448,1.0236,0.0041,0.0455,0.0507,0.0052,-0.0016,0.0024,-2.1501,20.3078,-43.6579,
9.4620,0.0005,-0.0448,1.0236,0.0041,0.0455,0.0507,0.0085,0.0054,0.0018,-2.1501,20.3078,-43.6579,
9.4630,-0.0013,-0.0431,1.0230,0.0041,0.0455,0.0507,0.0085,0.0054,0.0018,-2.1501,20.3078,-43.6579,
9.4630,-0.0013,-0.0431,1.0230,-0.0181,-0.0404,-0.0171,0.0085,0.0054,0.0018,-2.1501,20.3078,-43.6579,
9.4900,-0.0018,-0.0408,1.0208,-0.0181,-0.0404,-0.0171,0.0085,0.0054,0.0018,-2.1501,20.3078,-43.6579,
9.4910,-0.0018,-0.0408,1.0208,-0.0181,-0.0404,-0.0171,0.0085,0.0054,0.0018,-2.1740,20.3165,-43.6582,
9.5120,-0.0023,-0.0382,1.0286,-0.0181,-0.0404,-0.0171,0.0085,0.0054,0.0018,-2.1740,20.3165,-43.6582,
9.5140,-0.0023,-0.0382,1.0286,-0.0181,-0.0404,-0.0171,0.0030,0.0051,0.0036,-2.1740,20.3165,-43.6582,
9.5370,-0.0026,-0.0373,1.0262,-0.0181,-0.0404,-0.0171,0.0030,0.0051,0.0036,-2.1740,20.3165,-43.6582,
9.5380,-0.0026,-0.0373,1.0262,-0.0008,-0.0290,-0.0210,0.0030,0.0051,0.0036,-2.1740,20.3165,-43.6582,
9.5390,-0.0023,-0.0362,1.0271,-0.0008,-0.0290,-0.0210,0.0030,0.0051,0.0036,-2.1740,20.3165,-43.6582,
9.5400,-0.0023,-0.0362,1.0271,-0.0008,-0.0290,-0.0210,-0.0000,-0.0019,0.0027,-2.1740,20.3165,-43.6582,
9.5570,-0.0023,-0.0362,1.0271,-0.0008,-0.0290,-0.0210,-0.0000,-0.0019,0.0027,-2.1364,20.3378,-43.6555,
9.5590,-0.0015,-0.0378,1.0256,-0.0008,-0.0290,-0.0210,-0.0000,-0.0019,0.0027,-2.1364,20.3378,-43.6555,
9.5780,-0.0015,-0.0378,1.0256,-0.0008,-0.0290,-0.0210,-0.0010,0.0011,0.0046,-2.1364,20.3378,-43.6555,
9.5800,-0.0004,-0.0387,1.0218,-0.0008,-0.0290,-0.0210,-0.0010,0.0011,0.0046,-2.1364,20.3378,-43.6555,
9.5950,-0.0004,-0.0387,1.0218,-0.0122,0.0334,0.0155,-0.0010,0.0011,0.0046,-2.1364,20.3378,-43.6555,
9.5970,-0.0006,-0.0394,1.0210,-0.0122,0.0334,0.0155,-0.0010,0.0011,0.0046,-2.1364,20.3378,-43.6555,
9.6240,-0.0012,-0.0410,1.0240,-0.0122,0.0334,0.0155,-0.0010,0.0011,0.0046,-2.1364,20.3378,-43.6555,
9.6250,-0.0012,-0.0410,1.0240,-0.0122,0.0334,0.0155,-0.0110,0.0060,0.0030,-2.1364,20.3378,-43.6555,
9.6250,-0.0012,-0.0410,1.0240,-0.0122,0.0334,0.0155,-0.0110,0.0060,0.0030,-2.0487,20.3801,-43.6755,
9.6460,-0.0032,-0.0433,1.0279,-0.0122,0.0334,0.0155,-0.0110,0.0060,0.0030,-2.0487,20.3801,-43.6755,
9.6740,-0.0034,-0.0428,1.0255,-0.0122,0.0334,0.0155,-0.0110,0.0060,0.0030,-2.0487,20.3801,-43.6755,
9.6760,-0.0017,-0.0421,1.0242,-0.0122,0.0334,0.0155,-0.0110,0.0060,0.0030,-2.0487,20.3801,-43.6755,
9.6760,-0.0017,-0.0421,1.0242,-0.0122,0.0334,0.0155,-0.0040,0.0020,0.0006,-2.0487,20.3801,-43.6755,
9.6770,-0.0017,-0.0421,1.0242,0.0021,0.0231,-0.0198,-0.0040,0.0020,0.0006,-2.0487,20.3801,-43.6755,
9.6910,-0.0017,-0.0421,1.0242,0.0021,0.0231,-0.0198,-0.0040,0.0020,0.0006,-2.0348,20.4097,-43.6861,
9.7120,-0.0045,-0.0416,1.0122,0.0021,0.0231,-0.0198,-0.0040,0.0020,0.0006,-2.0348,20.4097,-43.6861,
9.7140,-0.0045,-0.0416,1.0122,0.0021,0.0231,-0.0198,-0.0208,-0.0010,0.0006,-2.0348,20.4097,-43.6861,
9.7320,-0.0026,-0.0450,1.0001,0.0021,0.0231,-0.0198,-0.0208,-0.0010,0.0006,-2.0348,20.4097,-43.6861,
9.7340,-0.0026,-0.0450,1.0001,0.0021,0.0231,-0.0198,-0.0407,0.0417,0.0027,-2.0348,20.4097,-43.6861,
9.7340,0.0028,-0.0486,1.0451,0.0021,0.0231,-0.0198,-0.0407,0.0417,0.0027,-2.0348,20.4097,-43.6861,
9.7350,0.0028,-0.0486,1.0451,0.0043,0.0101,0.0079,-0.0407,0.0417,0.0027,-2.0348,20.4097,-43.6861,
9.7570,-0.0054,-0.0474,1.0368,0.0043,0.0101,0.0079,-0.0407,0.0417,0.0027,-2.0348,20.4097,-43.6861,
9.7580,-0.0054,-0.0474,1.0368,0.0043,0.0101,0.0079,-0.0407,0.0417,0.0027,-2.0100,20.4320,-43.6324,
9.7800,-0.0065,-0.0422,1.0089,0.0043,0.0101,0.0079,-0.0407,0.0417,0.0027,-2.0100,20.4320,-43.6324,
9.7810,-0.0065,-0.0422,1.0089,0.0043,0.0101,0.0079,-0.0074,-0.0187,-0.0000,-2.0100,20.4320,-43.6324,
9.8110,-0.0051,-0.0430,1.0355,0.0043,0.0101,0.0079,-0.0074,-0.0187,-0.0000,-2.0100,20.4320,-43.6324,
9.8140,-0.0051,-0.0430,1.0355,0.0043,0.0101,0.0079,0.0070,-0.0065,-0.0003,-2.0100,20.4320,-43.6324,
9.8140,-0.0009,-0.0386,1.0306,0.0043,0.0101,0.0079,0.0070,-0.0065,-0.0003,-2.0100,20.4320,-43.6324,
9.8150,-0.0009,-0.0386,1.0306,-0.0029,-0.0182,-0.0022,0.0070,-0.0065,-0.0003,-2.0100,20.4320,-43.6324,
9.8240,-0.0009,-0.0386,1.0306,-0.0029,-0.0182,-0.0022,0.0070,-0.0065,-0.0003,-2.0552,20.4765,-43.7083,
9.8460,0.0002,-0.0333,1.0054,-0.0029,-0.0182,-0.0022,0.0070,-0.0065,-0.0003,-2.0552,20.4765,-43.7083,
9.8690,0.0002,-0.0361,1.0275,-0.0029,-0.0182,-0.0022,0.0070,-0.0065,-0.0003,-2.0552,20.4765,-43.7083,
9.8700,0.0002,-0.0373,1.0277,-0.0029,-0.0182,-0.0022,0.0070,-0.0065,-0.0003,-2.0552,20.4765,-43.7083,
9.8700,0.0002,-0.0373,1.0277,-0.0203,0.0205,-0.0102,0.0070,-0.0065,-0.0003,-2.0552,20.4765,-43.7083,
9.8710,0.0002,-0.0373,1.0277,-0.0203,0.0205,-0.0102,-0.0071,0.0011,0.0003,-2.0552,20.4765,-43.7083,
9.8910,-0.0060,-0.0439,1.0273,-0.0203,0.0205,-0.0102,-0.0071,0.0011,0.0003,-2.0552,20.4765,-43.7083,
9.8920,-0.0060,-0.0439,1.0273,-0.0203,0.0205,-0.0102,-0.0071,0.0011,0.0003,-2.1149,20.4926,-43.7351,
9.8930,-0.0060,-0.0439,1.0273,-0.0203,0.0205,-0.0102,-0.0101,0.0011,0.0021,-2.1149,20.4926,-43.7351,
9.9130,-0.0090,-0.0482,1.0197,-0.0203,0.0205,-0.0102,-0.0101,0.0011,0.0021,-2.1149,20.4926,-43.7351,
9.9490,-0.0090,-0.0482,1.0197,-0.0203,0.0205,-0.0102,-0.0000,-0.0022,0.0015,-2.1149,20.4926,-43.7351,
9.9510,-0.0048,-0.0481,1.0216,-0.0203,0.0205,-0.0102,-0.0000,-0.0022,0.0015,-2.1149,20.4926,-43.7351,
9.9510,-0.0026,-0.0465,1.0307,-0.0203,0.0205,-0.0102,-0.0000,-0.0022,0.0015,-2.1149,20.4926,-43.7351,
9.9520,-0.0026,-0.0465,1.0307,0.0134,0.0666,-0.0306,-0.0000,-0.0022,0.0015,-2.1149,20.4926,-43.7351,
9.9560,-0.0026,-0.0465,1.0307,0.0134,0.0666,-0.0306,-0.0000,-0.0022,0.0015,-2.1416,20.4531,-43.7128,
9.9780,-0.0026,-0.0465,1.0307,0.0134,0.0666,-0.0306,0.0009,-0.0102,-0.0009,-2.1416,20.4531,-43.7128,
9.9800,-0.0013,-0.0480,1.0245,0.0134,0.0666,-0.0306,0.0009,-0.0102,-0.0009,-2.1416,20.4531,-43.7128,
10.0060,-0.0013,-0.0480,1.0245,0.0134,0.0666,-0.0306,0.0055,-0.0010,-0.0006,-2.1416,20.4531,-43.7128,
10.0080,-0.0021,-0.0481,1.0212,0.0134,0.0666,-0.0306,0.0055,-0.0010,-0.0006,-2.1416,20.4531,-43.7128,
10.0080,-0.0022,-0.0452,1.0197,0.0134,0.0666,-0.0306,0.0055,-0.0010,-0.0006,-2.1416,20.4531,-43.7128,
10.0090,-0.0022,-0.0452,1.0197,-0.0391,-0.0384,0.0015,0.0055,-0.0010,-0.0006,-2.1416,20.4531,-43.7128,
10.0240,-0.0022,-0.0452,1.0197,-0.0391,-0.0384,0.0015,0.0055,-0.0010,-0.0006,-2.1406,20.4727,-43.7115,
10.0450,-0.0031,-0.0403,1.0344,-0.0391,-0.0384,0.0015,0.0055,-0.0010,-0.0006,-2.1406,20.4727,-43.7115,
10.0470,-0.0020,-0.0421,0.9963,-0.0391,-0.0384,0.0015,0.0055,-0.0010,-0.0006,-2.1406,20.4727,-43.7115,
10.0470,-0.0020,-0.0421,0.9963,-0.0391,-0.0384,0.0015,-0.0003,-0.0117,0.0012,-2.1406,20.4727,-43.7115,
10.0850,-0.0009,-0.0448,1.0260,-0.0391,-0.0384,0.0015,-0.0003,-0.0117,0.0012,-2.1406,20.4727,-43.7115,
10.0870,-0.0013,-0.0413,1.0367,-0.0391,-0.0384,0.0015,-0.0003,-0.0117,0.0012,-2.1406,20.4727,-43.7115,
10.0870,-0.0013,-0.0413,1.0367,-0.0047,-0.0197,-0.0124,-0.0003,-0.0117,0.0012,-2.1406,20.4727,-43.7115,
10.0880,-0.0013,-0.0413,1.0367,-0.0047,-0.0197,-0.0124,-0.0135,0.0011,-0.0012,-2.1406,20.4727,-43.7115,
10.0900,-0.0013,-0.0413,1.0367,-0.0047,-0.0197,-0.0124,-0.0135,0.0011,-0.0012,-2.1643,20.4810,-43.7247,
10.1120,-0.0049,-0.0373,1.0173,-0.0047,-0.0197,-0.0124,-0.0135,0.0011,-0.0012,-2.1643,20.4810,-43.7247,
10.1420,-0.0012,-0.0349,1.0267,-0.0047,-0.0197,-0.0124,-0.0135,0.0011,-0.0012,-2.1643,20.4810,-43.7247,
10.1430,-0.0012,-0.0349,1.0267,-0.0047,-0.0197,-0.0124,0.0015,-0.0071,-0.0022,-2.1643,20.4810,-43.7247,
10.1440,-0.0009,-0.0364,1.0299,-0.0047,-0.0197,-0.0124,0.0015,-0.0071,-0.0022,-2.1643,20.4810,-43.7247,
10.1440,-0.0009,-0.0364,1.0299,-0.0031,0.0181,-0.0150,0.0015,-0.0071,-0.0022,-2.1643,20.4810,-43.7247,
10.1580,-0.0009,-0.0364,1.0299,-0.0031,0.0181,-0.0150,0.0015,-0.0071,-0.0022,-2.1515,20.4910,-43.7365,
10.1790,-0.0009,-0.0364,1.0299,-0.0031,0.0181,-0.0150,0.0003,0.0002,0.0003,-2.1515,20.4910,-43.7365,
10.1800,-0.0017,-0.0415,1.0218,-0.0031,0.0181,-0.0150,0.0003,0.0002,0.0003,-2.1515,20.4910,-43.7365,
10.2220,-0.0017,-0.0415,1.0218,-0.0088,0.0658,-0.0008,0.0003,0.0002,0.0003,-2.1515,20.4910,-43.7365,
10.2240,-0.0017,-0.0415,1.0218,-0.0088,0.0658,-0.0008,0.0058,-0.0026,0.0006,-2.1515,20.4910,-43.7365,
10.2240,-0.0023,-0.0467,1.0341,-0.0088,0.0658,-0.0008,0.0058,-0.0026,0.0006,-2.1515,20.4910,-43.7365,
10.2250,-0.0017,-0.0456,1.0075,-0.0088,0.0658,-0.0008,0.0058,-0.0026,0.0006,-2.1515,20.4910,-43.7365,
10.2250,-0.0020,-0.0470,1.0213,-0.0088,0.0658,-0.0008,0.0058,-0.0026,0.0006,-2.1515,20.4910,-43.7365,
10.2260,-0.0020,-0.0470,1.0213,-0.0088,0.0658,-0.0008,0.0058,-0.0026,0.0006,-2.1030,20.4719,-43.7873,
10.2450,-0.0039,-0.0487,1.0299,-0.0088,0.0658,-0.0008,0.0058,-0.0026,0.0006,-2.1030,20.4719,-43.7873,
10.2470,-0.0039,-0.0487,1.0299,-0.0088,0.0658,-0.0008,-0.0141,0.0023,-0.0006,-2.1030,20.4719,-43.7873,
10.2800,-0.0039,-0.0487,1.0299,-0.0088,0.0658,-0.0008,0.0048,0.0014,-0.0012,-2.1030,20.4719,-43.7873,
10.2820,-0.0034,-0.0486,1.0228,-0.0088,0.0658,-0.0008,0.0048,0.0014,-0.0012,-2.1030,20.4719,-43.7873,
10.2820,-0.0034,-0.0486,1.0228,-0.0029,-0.0238,-0.0220,0.0048,0.0014,-0.0012,-2.1030,20.4719,-43.7873,
10.2830,-0.0042,-0.0456,1.0170,-0.0029,-0.0238,-0.0220,0.0048,0.0014,-0.0012,-2.1030,20.4719,-43.7873,
10.2900,-0.0042,-0.0456,1.0170,-0.0029,-0.0238,-0.0220,0.0048,0.0014,-0.0012,-2.1381,20.4777,-43.8653,
10.3120,-0.0022,-0.0449,1.0283,-0.0029,-0.0238,-0.0220,0.0048,0.0014,-0.0012,-2.1381,20.4777,-43.8653,
10.3570,-0.0023,-0.0422,1.0256,-0.0029,-0.0238,-0.0220,0.0048,0.0014,-0.0012,-2.1381,20.4777,-43.8653,
10.3580,-0.0023,-0.0422,1.0256,-0.0029,-0.0238,-0.0220,0.0048,0.0014,-0.0012,-2.1144,20.4694,-43.8521,
10.3590,-0.0035,-0.0409,1.0255,-0.0029,-0.0238,-0.0220,0.0048,0.0014,-0.0012,-2.1144,20.4694,-43.8521,
10.3600,-0.0028,-0.0400,1.0255,-0.0029,-0.0238,-0.0220,0.0048,0.0014,-0.0012,-2.1144,20.4694,-43.8521,
10.3600,-0.0028,-0.0400,1.0255,-0.0168,-0.0297,0.0000,0.0048,0.0014,-0.0012,-2.1144,20.4694,-43.8521,
10.3610,-0.0028,-0.0400,1.0255,-0.0168,-0.0297,0.0000,-0.0043,0.0029,0.0012,-2.1144,20.4694,-43.8521,
10.3620,-0.0028,-0.0400,1.0255,-0.0168,-0.0297,0.0000,-0.0034,0.0020,-0.0003,-2.1144,20.4694,-43.8521,
10.3790,-0.0021,-0.0406,1.0256,-0.0168,-0.0297,0.0000,-0.0034,0.0020,-0.0003,-2.1144,20.4694,-43.8521,
10.4160,-0.0029,-0.0402,1.0247,-0.0168,-0.0297,0.0000,-0.0034,0.0020,-0.0003,-2.1144,20.4694,-43.8521,
10.4170,-0.0029,-0.0402,1.0247,-0.0168,-0.0297,0.0000,-0.0016,0.0002,-0.0025,-2.1144,20.4694,-43.8521,
10.4180,-0.0020,-0.0395,1.0241,-0.0168,-0.0297,0.0000,-0.0016,0.0002,-0.0025,-2.1144,20.4694,-43.8521,
10.4180,-0.0020,-0.0395,1.0241,-0.0065,0.0246,0.0219,-0.0016,0.0002,-0.0025,-2.1144,20.4694,-43.8521,
10.4240,-0.0020,-0.0395,1.0241,-0.0065,0.0246,0.0219,-0.0016,0.0002,-0.0025,-2.1260,20.4783,-43.8648,
10.4450,-0.0020,-0.0395,1.0241,-0.0065,0.0246,0.0219,-0.0006,0.0017,-0.0028,-2.1260,20.4783,-43.8648,
10.4470,-0.0011,-0.0417,1.0232,-0.0065,0.0246,0.0219,-0.0006,0.0017,-0.0028,-2.1260,20.4783,-43.8648,
10.4930,-0.0011,-0.0417,1.0232,-0.0065,0.0246,0.0219,-0.0065,0.0023,-0.0031,-2.1260,20.4783,-43.8648,
10.4940,-0.0021,-0.0438,1.0189,-0.0065,0.0246,0.0219,-0.0065,0.0023,-0.0031,-2.1260,20.4783,-43.8648,
10.4950,-0.0053,-0.0449,1.0247,-0.0065,0.0246,0.0219,-0.0065,0.0023,-0.0031,-2.1260,20.4783,-43.8648,
10.4960,-0.0053,-0.0449,1.0247,-0.0065,0.0246,0.0219,-0.0065,0.0023,-0.0031,-2.1388,20.4573,-43.8923,
10.4970,-0.0027,-0.0448,1.0338,-0.0065,0.0246,0.0219,-0.0065,0.0023,-0.0031,-2.1388,20.4573,-43.8923,
10.4980,-0.0027,-0.0448,1.0338,-0.0010,0.0348,0.0053,-0.0065,0.0023,-0.0031,-2.1388,20.4573,-43.8923,
10.5540,-0.0027,-0.0448,1.0338,-0.0010,0.0348,0.0053,-0.0013,-0.0084,-0.0037,-2.1388,20.4573,-43.8923,
10.5560,-0.0027,-0.0448,1.0338,-0.0010,0.0348,0.0053,-0.0364,0.0280,-0.0012,-2.1388,20.4573,-43.8923,
10.5560,-0.0029,-0.0422,1.0147,-0.0010,0.0348,0.0053,-0.0364,0.0280,-0.0012,-2.1388,20.4573,-43.8923,
10.5570,-0.0045,-0.0436,1.0085,-0.0010,0.0348,0.0053,-0.0364,0.0280,-0.0012,-2.1388,20.4573,-43.8923,
10.5580,-0.0027,-0.0478,0.9992,-0.0010,0.0348,0.0053,-0.0364,0.0280,-0.0012,-2.1388,20.4573,-43.8923,
10.5590,-0.0027,-0.0478,0.9992,0.0044,0.0136,0.0133,-0.0364,0.0280,-0.0012,-2.1388,20.4573,-43.8923,
10.5590,-0.0027,-0.0478,0.9992,0.0044,0.0136,0.0133,-0.0364,0.0280,-0.0012,-2.1271,20.4701,-43.8140,
10.5790,-0.0011,-0.0518,1.0732,0.0044,0.0136,0.0133,-0.0364,0.0280,-0.0012,-2.1271,20.4701,-43.8140,
10.6250,-0.0050,-0.0478,1.0169,0.0044,0.0136,0.0133,-0.0364,0.0280,-0.0012,-2.1271,20.4701,-43.8140,
10.6260,-0.0050,-0.0478,1.0169,0.0044,0.0136,0.0133,-0.0083,-0.0059,-0.0037,-2.1271,20.4701,-43.8140,
10.6270,-0.0087,-0.0460,1.0133,0.0044,0.0136,0.0133,-0.0083,-0.0059,-0.0037,-2.1271,20.4701,-43.8140,
10.6280,-0.0087,-0.0460,1.0133,0.0044,0.0136,0.0133,-0.0083,-0.0059,-0.0037,-2.1137,20.4898,-43.8251,
10.6300,-0.0018,-0.0456,1.0393,0.0044,0.0136,0.0133,-0.0083,-0.0059,-0.0037,-2.1137,20.4898,-43.8251,
10.6310,-0.0018,-0.0456,1.0393,0.0044,0.0136,0.0133,-0.0095,-0.0215,-0.0028,-2.1137,20.4898,-43.8251,
10.6310,-0.0018,-0.0456,1.0393,-0.0070,0.0021,-0.0558,-0.0095,-0.0215,-0.0028,-2.1137,20.4898,-43.8251,
10.6910,-0.0018,-0.0456,1.0393,-0.0070,0.0021,-0.0558,0.0058,-0.0050,-0.0046,-2.1137,20.4898,-43.8251,
10.6940,-0.0010,-0.0386,1.0125,-0.0070,0.0021,-0.0558,0.0058,-0.0050,-0.0046,-2.1137,20.4898,-43.8251,
10.6950,-0.0026,-0.0354,1.0186,-0.0070,0.0021,-0.0558,0.0058,-0.0050,-0.0046,-2.1137,20.4898,-43.8251,
10.6950,0.0002,-0.0358,1.0297,-0.0070,0.0021,-0.0558,0.0058,-0.0050,-0.0046,-2.1137,20.4898,-43.8251,
10.6960,0.0002,-0.0358,1.0297,-0.0295,-0.0066,0.0536,0.0058,-0.0050,-0.0046,-2.1137,20.4898,-43.8251,
10.6970,0.0002,-0.0358,1.0297,-0.0295,-0.0066,0.0536,0.0058,-0.0050,-0.0046,-2.1263,20.4901,-43.7999,
10.7130,0.0012,-0.0397,1.0304,-0.0295,-0.0066,0.0536,0.0058,-0.0050,-0.0046,-2.1263,20.4901,-43.7999,
10.7140,0.0012,-0.0397,1.0304,-0.0295,-0.0066,0.0536,-0.0229,-0.0016,-0.0012,-2.1263,20.4901,-43.7999,
10.7580,0.0012,-0.0397,1.0304,-0.0295,-0.0066,0.0536,-0.0016,-0.0010,-0.0025,-2.1263,20.4901,-43.7999,
10.7590,-0.0048,-0.0454,1.0308,-0.0295,-0.0066,0.0536,-0.0016,-0.0010,-0.0025,-2.1263,20.4901,-43.7999,
10.7600,-0.0086,-0.0499,1.0227,-0.0295,-0.0066,0.0536,-0.0016,-0.0010,-0.0025,-2.1263,20.4901,-43.7999,
10.7610,-0.0086,-0.0499,1.0227,-0.0295,-0.0066,0.0536,-0.0016,-0.0010,-0.0025,-2.2231,20.5062,-43.7766,
10.7670,-0.0050,-0.0504,1.0221,-0.0295,-0.0066,0.0536,-0.0016,-0.0010,-0.0025,-2.2231,20.5062,-43.7766,
10.7680,-0.0050,-0.0504,1.0221,0.0107,0.0872,-0.0194,-0.0016,-0.0010,-0.0025,-2.2231,20.5062,-43.7766,
10.8270,-0.0027,-0.0499,1.0245,0.0107,0.0872,-0.0194,-0.0016,-0.0010,-0.0025,-2.2231,20.5062,-43.7766,
10.8290,-0.0027,-0.0499,1.0245,0.0107,0.0872,-0.0194,-0.0086,-0.0068,-0.0034,-2.2231,20.5062,-43.7766,
10.8300,-0.0027,-0.0499,1.0245,0.0107,0.0872,-0.0194,-0.0086,-0.0068,-0.0034,-2.2114,20.5190,-43.6983,
10.8310,-0.0015,-0.0503,1.0266,0.0107,0.0872,-0.0194,-0.0086,-0.0068,-0.0034,-2.2114,20.5190,-43.6983,
10.8320,-0.0015,-0.0503,1.0266,0.0107,0.0872,-0.0194,-0.0095,-0.0090,-0.0012,-2.2114,20.5190,-43.6983,
10.8320,-0.0020,-0.0505,1.0275,0.0107,0.0872,-0.0194,-0.0095,-0.0090,-0.0012,-2.2114,20.5190,-43.6983,
10.8330,-0.0020,-0.0505,1.0275,-0.0360,-0.0102,0.0186,-0.0095,-0.0090,-0.0012,-2.2114,20.5190,-43.6983,
10.8460,-0.0031,-0.0478,1.0178,-0.0360,-0.0102,0.0186,-0.0095,-0.0090,-0.0012,-2.2114,20.5190,-43.6983,
10.8920,-0.0034,-0.0438,1.0299,-0.0360,-0.0102,0.0186,-0.0095,-0.0090,-0.0012,-2.2114,20.5190,-43.6983,
10.8930,-0.0034,-0.0438,1.0299,-0.0360,-0.0102,0.0186,-0.0095,-0.0090,-0.0012,-2.2342,20.5583,-43.6581,
10.8940,-0.0016,-0.0443,0.9974,-0.0360,-0.0102,0.0186,-0.0095,-0.0090,-0.0012,-2.2342,20.5583,-43.6581,
10.8940,-0.0016,-0.0443,0.9974,-0.0360,-0.0102,0.0186,-0.0077,-0.0169,-0.0009,-2.2342,20.5583,-43.6581,
10.9040,0.0028,-0.0492,1.0286,-0.0360,-0.0102,0.0186,-0.0077,-0.0169,-0.0009,-2.2342,20.5583,-43.6581,
10.9040,0.0028,-0.0492,1.0286,-0.0360,-0.0102,0.0186,-0.0462,-0.0093,0.0015,-2.2342,20.5583,-43.6581,
10.9050,0.0028,-0.0492,1.0286,-0.0134,-0.0124,0.0174,-0.0462,-0.0093,0.0015,-2.2342,20.5583,-43.6581,
10.9590,0.0015,-0.0497,1.0490,-0.0134,-0.0124,0.0174,-0.0462,-0.0093,0.0015,-2.2342,20.5583,-43.6581,
10.9620,0.0015,-0.0497,1.0490,-0.0134,-0.0124,0.0174,-0.0019,-0.0080,-0.0022,-2.2342,20.5583,-43.6581,
10.9630,0.0015,-0.0497,1.0490,-0.0134,-0.0124,0.0174,-0.0019,-0.0080,-0.0022,-2.2697,20.5874,-43.6190,
10.9640,-0.0026,-0.0442,1.0140,-0.0134,-0.0124,0.0174,-0.0019,-0.0080,-0.0022,-2.2697,20.5874,-43.6190,
10.9650,-0.0010,-0.0410,1.0305,-0.0134,-0.0124,0.0174,-0.0019,-0.0080,-0.0022,-2.2697,20.5874,-43.6190,
10.9660,-0.0010,-0.0410,1.0305,-0.0067,0.0261,-0.0562,-0.0019,-0.0080,-0.0022,-2.2697,20.5874,-43.6190,
11.0280,-0.0010,-0.0410,1.0305,-0.0067,0.0261,-0.0562,-0.0000,-0.0035,-0.0000,-2.2697,20.5874,-43.6190,
11.0300,0.0028,-0.0404,1.0300,-0.0067,0.0261,-0.0562,-0.0000,-0.0035,-0.0000,-2.2697,20.5874,-43.6190,
11.0310,0.0028,-0.0404,1.0300,-0.0067,0.0261,-0.0562,-0.0037,-0.0022,-0.0009,-2.2697,20.5874,-43.6190,
11.0320,0.0017,-0.0437,1.0214,-0.0067,0.0261,-0.0562,-0.0037,-0.0022,-0.0009,-2.2697,20.5874,-43.6190,
11.0330,-0.0021,-0.0494,1.0367,-0.0067,0.0261,-0.0562,-0.0037,-0.0022,-0.0009,-2.2697,20.5874,-43.6190,
11.0330,-0.0021,-0.0494,1.0367,-0.0067,0.0261,-0.0562,-0.0037,-0.0022,-0.0009,-2.3021,20.6639,-43.6282,
11.0420,-0.0043,-0.0487,1.0146,-0.0067,0.0261,-0.0562,-0.0037,-0.0022,-0.0009,-2.3021,20.6639,-43.6282,
11.0430,-0.0043,-0.0487,1.0146,-0.0006,0.0372,0.0719,-0.0037,-0.0022,-0.0009,-2.3021,20.6639,-43.6282,
11.0930,-0.0043,-0.0487,1.0146,-0.0006,0.0372,0.0719,-0.0068,-0.0090,-0.0018,-2.3021,20.6639,-43.6282,
11.0960,-0.0004,-0.0514,1.0195,-0.0006,0.0372,0.0719,-0.0068,-0.0090,-0.0018,-2.3021,20.6639,-43.6282,
11.0970,-0.0010,-0.0520,1.0261,-0.0006,0.0372,0.0719,-0.0068,-0.0090,-0.0018,-2.3021,20.6639,-43.6282,
11.0980,-0.0010,-0.0520,1.0261,-0.0006,0.0372,0.0719,-0.0068,-0.0090,-0.0018,-2.3231,20.7099,-43.6903,
11.0990,-0.0010,-0.0520,1.0261,-0.0006,0.0372,0.0719,-0.0037,-0.0029,-0.0040,-2.3231,20.7099,-43.6903,
11.0990,-0.0010,-0.0520,1.0261,-0.0103,0.0198,0.0015,-0.0037,-0.0029,-0.0040,-2.3231,20.7099,-43.6903,
11.1000,-0.0013,-0.0529,1.0273,-0.0103,0.0198,0.0015,-0.0037,-0.0029,-0.0040,-2.3231,20.7099,-43.6903,
11.1590,-0.0013,-0.0529,1.0273,-0.0103,0.0198,0.0015,-0.0016,-0.0029,-0.0031,-2.3231,20.7099,-43.6903,
11.1610,-0.0013,-0.0529,1.0273,-0.0103,0.0198,0.0015,-0.0016,-0.0029,-0.0031,-2.3596,20.7193,-43.6525,
11.1620,-0.0015,-0.0521,1.0200,-0.0103,0.0198,0.0015,-0.0016,-0.0029,-0.0031,-2.3596,20.7193,-43.6525,
11.1630,-0.0012,-0.0502,1.0233,-0.0103,0.0198,0.0015,-0.0016,-0.0029,-0.0031,-2.3596,20.7193,-43.6525,
11.1630,-0.0023,-0.0489,1.0212,-0.0103,0.0198,0.0015,-0.0016,-0.0029,-0.0031,-2.3596,20.7193,-43.6525,
11.1760,-0.0023,-0.0489,1.0212,-0.0111,-0.0280,-0.0021,-0.0016,-0.0029,-0.0031,-2.3596,20.7193,-43.6525,
11.1780,-0.0020,-0.0466,1.0170,-0.0111,-0.0280,-0.0021,-0.0016,-0.0029,-0.0031,-2.3596,20.7193,-43.6525,
11.1780,-0.0020,-0.0466,1.0170,-0.0111,-0.0280,-0.0021,-0.0126,-0.0032,-0.0003,-2.3596,20.7193,-43.6525,
11.2250,-0.0020,-0.0466,1.0170,-0.0111,-0.0280,-0.0021,-0.0126,-0.0032,-0.0003,-2.3590,20.7287,-43.6647,
11.2270,-0.0017,-0.0464,1.0258,-0.0111,-0.0280,-0.0021,-0.0126,-0.0032,-0.0003,-2.3590,20.7287,-43.6647,
11.2270,-0.0017,-0.0464,1.0258,-0.0111,-0.0280,-0.0021,-0.0303,-0.0084,0.0009,-2.3590,20.7287,-43.6647,
11.2280,-0.0011,-0.0461,1.0212,-0.0111,-0.0280,-0.0021,-0.0303,-0.0084,0.0009,-2.3590,20.7287,-43.6647,
11.2350,-0.0011,-0.0461,1.0212,-0.0220,0.0248,-0.0351,-0.0303,-0.0084,0.0009,-2.3590,20.7287,-43.6647,
