
time,gFx,gFy,gFz,ax,ay,az,wx,wy,wz,Bx,By,Bz,
0.0450,0.2196,-0.0271,1.0268,0.0000,0.0000,0.0000,0.0000,0.0000,0.0000,0.0000,0.0000,0.0000,
0.0450,0.2196,-0.0271,1.0268,0.0000,0.0000,0.0000,-0.0182,-0.0046,-0.0003,0.0000,0.0000,0.0000,
0.0540,0.2183,-0.0231,0.9938,0.0000,0.0000,0.0000,-0.0182,-0.0046,-0.0003,0.0000,0.0000,0.0000,
0.0960,0.2229,-0.0234,1.0175,0.0000,0.0000,0.0000,-0.0182,-0.0046,-0.0003,0.0000,0.0000,0.0000,
0.0970,0.2229,-0.0234,1.0175,0.0000,0.0000,0.0000,-0.0032,-0.0049,-0.0000,0.0000,0.0000,0.0000,
0.0980,0.2227,-0.0210,1.0081,0.0000,0.0000,0.0000,-0.0032,-0.0049,-0.0000,0.0000,0.0000,0.0000,
0.1120,0.2254,-0.0227,1.0042,0.0000,0.0000,0.0000,-0.0032,-0.0049,-0.0000,0.0000,0.0000,0.0000,
0.1130,0.2254,-0.0227,1.0042,0.0000,0.0000,0.0000,-0.0063,-0.0116,-0.0003,0.0000,0.0000,0.0000,
0.1420,0.2254,-0.0245,1.0073,0.0000,0.0000,0.0000,-0.0063,-0.0116,-0.0003,0.0000,0.0000,0.0000,
0.1430,0.2254,-0.0245,1.0073,0.0000,0.0000,0.0000,-0.0063,-0.0116,-0.0003,-25.3983,3.4262,-40.2328,
0.1650,0.2229,-0.0246,1.0028,0.0000,0.0000,0.0000,-0.0063,-0.0116,-0.0003,-25.3983,3.4262,-40.2328,
0.1660,0.2229,-0.0246,1.0028,0.0000,0.0000,0.0000,-0.0051,-0.0006,-0.0010,-25.3983,3.4262,-40.2328,
0.1670,0.2214,-0.0234,1.0235,0.0000,0.0000,0.0000,-0.0051,-0.0006,-0.0010,-25.3983,3.4262,-40.2328,
0.1670,0.2214,-0.0234,1.0235,0.0000,0.0000,0.0000,-0.0051,-0.0006,-0.0010,-25.3983,3.4262,-40.2328,
0.2010,0.2214,-0.0234,1.0235,0.0000,0.0000,0.0000,-0.0041,-0.0134,-0.0028,-25.3983,3.4262,-40.2328,
0.2020,0.2212,-0.0255,1.0124,0.0000,0.0000,0.0000,-0.0041,-0.0134,-0.0028,-25.3983,3.4262,-40.2328,
0.2020,0.2212,-0.0255,1.0124,0.0000,0.0000,0.0000,-0.0041,-0.0134,-0.0028,-25.6333,3.4523,-40.2185,
0.2420,0.2245,-0.0266,0.9996,0.0000,0.0000,0.0000,-0.0041,-0.0134,-0.0028,-25.6333,3.4523,-40.2185,
0.2420,0.2267,-0.0240,0.9825,0.0000,0.0000,0.0000,-0.0041,-0.0134,-0.0028,-25.6333,3.4523,-40.2185,
0.2430,0.2267,-0.0240,0.9825,0.0000,0.0000,0.0000,-0.0051,-0.0232,0.0006,-25.6333,3.4523,-40.2185,
0.2440,0.2291,-0.0223,1.0228,0.0000,0.0000,0.0000,-0.0051,-0.0232,0.0006,-25.6333,3.4523,-40.2185,
0.2440,0.2291,-0.0223,1.0228,-0.0047,-0.0078,0.0264,-0.0051,-0.0232,0.0006,-25.6333,3.4523,-40.2185,
0.2610,0.2291,-0.0223,1.0228,-0.0047,-0.0078,0.0264,-0.0051,-0.0232,0.0006,-25.6879,3.4570,-40.1954,
0.3010,0.2301,-0.0190,1.0227,-0.0047,-0.0078,0.0264,-0.0051,-0.0232,0.0006,-25.6879,3.4570,-40.1954,
0.3020,0.2301,-0.0190,1.0227,-0.0047,-0.0078,0.0264,-0.0048,0.0009,0.0018,-25.6879,3.4570,-40.1954,
0.3030,0.2301,-0.0190,1.0227,-0.0047,-0.0078,0.0264,0.0090,0.0088,0.0003,-25.6879,3.4570,-40.1954,
0.3030,0.2268,-0.0267,0.9951,-0.0047,-0.0078,0.0264,0.0090,0.0088,0.0003,-25.6879,3.4570,-40.1954,
0.3040,0.2213,-0.0217,1.0004,-0.0047,-0.0078,0.0264,0.0090,0.0088,0.0003,-25.6879,3.4570,-40.1954,
0.3050,0.2213,-0.0217,1.0004,0.0197,-0.0076,-0.0576,0.0090,0.0088,0.0003,-25.6879,3.4570,-40.1954,
0.3410,0.2185,-0.0250,1.0269,0.0197,-0.0076,-0.0576,0.0090,0.0088,0.0003,-25.6879,3.4570,-40.1954,
0.3440,0.2185,-0.0250,1.0269,0.0197,-0.0076,-0.0576,-0.0002,-0.0095,0.0009,-25.6879,3.4570,-40.1954,
0.3440,0.2168,-0.0234,0.9987,0.0197,-0.0076,-0.0576,-0.0002,-0.0095,0.0009,-25.6879,3.4570,-40.1954,
0.3450,0.2168,-0.0234,0.9987,0.0197,-0.0076,-0.0576,-0.0002,-0.0095,0.0009,-25.6383,3.4957,-40.1903,
0.3750,0.2211,-0.0232,1.0111,0.0197,-0.0076,-0.0576,-0.0002,-0.0095,0.0009,-25.6383,3.4957,-40.1903,
0.3800,0.2263,-0.0229,1.0069,0.0197,-0.0076,-0.0576,-0.0002,-0.0095,0.0009,-25.6383,3.4957,-40.1903,
0.3810,0.2263,-0.0229,1.0069,0.0197,-0.0076,-0.0576,-0.0041,-0.0095,-0.0019,-25.6383,3.4957,-40.1903,
0.3820,0.2263,-0.0229,1.0069,0.0011,0.0075,0.0227,-0.0041,-0.0095,-0.0019,-25.6383,3.4957,-40.1903,
0.4010,0.2291,-0.0233,1.0035,0.0011,0.0075,0.0227,-0.0041,-0.0095,-0.0019,-25.6383,3.4957,-40.1903,
0.4020,0.2291,-0.0233,1.0035,0.0011,0.0075,0.0227,-0.0041,-0.0095,-0.0019,-25.6523,3.4556,-40.1881,
0.4380,0.2274,-0.0259,1.0073,0.0011,0.0075,0.0227,-0.0041,-0.0095,-0.0019,-25.6523,3.4556,-40.1881,
0.4390,0.2274,-0.0259,1.0073,0.0011,0.0075,0.0227,-0.0045,-0.0104,-0.0013,-25.6523,3.4556,-40.1881,
0.4400,0.2247,-0.0226,1.0107,0.0011,0.0075,0.0227,-0.0045,-0.0104,-0.0013,-25.6523,3.4556,-40.1881,
0.4410,0.2247,-0.0226,1.0107,-0.0362,0.0024,-0.0039,-0.0045,-0.0104,-0.0013,-25.6523,3.4556,-40.1881,
0.4620,0.2243,-0.0240,1.0151,-0.0362,0.0024,-0.0039,-0.0045,-0.0104,-0.0013,-25.6523,3.4556,-40.1881,
0.4630,0.2243,-0.0240,1.0151,-0.0362,0.0024,-0.0039,-0.0045,-0.0104,-0.0013,-25.6462,3.4628,-40.1421,
0.4630,0.2243,-0.0240,1.0151,-0.0362,0.0024,-0.0039,-0.0057,0.0015,0.0036,-25.6462,3.4628,-40.1421,
0.5080,0.2243,-0.0240,1.0151,-0.0362,0.0024,-0.0039,0.0020,-0.0083,0.0021,-25.6462,3.4628,-40.1421,
0.5090,0.2234,-0.0255,1.0058,-0.0362,0.0024,-0.0039,0.0020,-0.0083,0.0021,-25.6462,3.4628,-40.1421,
0.5090,0.2250,-0.0251,1.0064,-0.0362,0.0024,-0.0039,0.0020,-0.0083,0.0021,-25.6462,3.4628,-40.1421,
0.5160,0.2250,-0.0251,1.0064,0.0156,-0.0027,0.0051,0.0020,-0.0083,0.0021,-25.6462,3.4628,-40.1421,
0.5170,0.2246,-0.0244,1.0089,0.0156,-0.0027,0.0051,0.0020,-0.0083,0.0021,-25.6462,3.4628,-40.1421,
0.5410,0.2246,-0.0244,1.0089,0.0156,-0.0027,0.0051,0.0053,0.0018,0.0033,-25.6462,3.4628,-40.1421,
0.5410,0.2238,-0.0239,1.0078,0.0156,-0.0027,0.0051,0.0053,0.0018,0.0033,-25.6462,3.4628,-40.1421,
0.5430,0.2238,-0.0239,1.0078,0.0156,-0.0027,0.0051,0.0053,0.0018,0.0033,-25.6642,3.4438,-40.1361,
0.5760,0.2238,-0.0239,1.0078,0.0156,-0.0027,0.0051,0.0062,0.0030,0.0033,-25.6642,3.4438,-40.1361,
0.5780,0.2223,-0.0224,1.0130,0.0156,-0.0027,0.0051,0.0062,0.0030,0.0033,-25.6642,3.4438,-40.1361,
0.5790,0.2217,-0.0216,1.0004,0.0156,-0.0027,0.0051,0.0062,0.0030,0.0033,-25.6642,3.4438,-40.1361,
0.5800,0.2217,-0.0216,1.0004,-0.0057,-0.0110,0.0023,0.0062,0.0030,0.0033,-25.6642,3.4438,-40.1361,
0.5960,0.2244,-0.0199,1.0053,-0.0057,-0.0110,0.0023,0.0062,0.0030,0.0033,-25.6642,3.4438,-40.1361,
0.6010,0.2244,-0.0199,1.0053,-0.0057,-0.0110,0.0023,0.0062,0.0030,0.0033,-25.6262,3.4412,-40.1328,
0.6420,0.2250,-0.0195,1.0025,-0.0057,-0.0110,0.0023,0.0062,0.0030,0.0033,-25.6262,3.4412,-40.1328,
0.6430,0.2217,-0.0193,1.0003,-0.0057,-0.0110,0.0023,0.0062,0.0030,0.0033,-25.6262,3.4412,-40.1328,
0.6440,0.2217,-0.0193,1.0003,-0.0057,-0.0110,0.0023,0.0065,0.0064,0.0036,-25.6262,3.4412,-40.1328,
0.6520,0.2203,-0.0195,1.0108,-0.0057,-0.0110,0.0023,0.0065,0.0064,0.0036,-25.6262,3.4412,-40.1328,
0.6530,0.2203,-0.0195,1.0108,-0.0146,0.0107,-0.0110,0.0065,0.0064,0.0036,-25.6262,3.4412,-40.1328,
0.6540,0.2203,-0.0195,1.0108,-0.0146,0.0107,-0.0110,0.0001,0.0037,0.0058,-25.6262,3.4412,-40.1328,
0.6610,0.2203,-0.0195,1.0108,-0.0146,0.0107,-0.0110,0.0001,0.0037,0.0058,-25.6265,3.4525,-40.1035,
0.7080,0.2203,-0.0195,1.0108,-0.0146,0.0107,-0.0110,-0.0045,-0.0018,0.0070,-25.6265,3.4525,-40.1035,
0.7090,0.2211,-0.0206,1.0101,-0.0146,0.0107,-0.0110,-0.0045,-0.0018,0.0070,-25.6265,3.4525,-40.1035,
0.7090,0.2232,-0.0215,1.0141,-0.0146,0.0107,-0.0110,-0.0045,-0.0018,0.0070,-25.6265,3.4525,-40.1035,
0.7120,0.2273,-0.0253,1.0125,-0.0146,0.0107,-0.0110,-0.0045,-0.0018,0.0070,-25.6265,3.4525,-40.1035,
0.7130,0.2273,-0.0253,1.0125,-0.0156,0.0341,-0.0262,-0.0045,-0.0018,0.0070,-25.6265,3.4525,-40.1035,
0.7410,0.2284,-0.0242,1.0035,-0.0156,0.0341,-0.0262,-0.0045,-0.0018,0.0070,-25.6265,3.4525,-40.1035,
0.7430,0.2284,-0.0242,1.0035,-0.0156,0.0341,-0.0262,0.0041,-0.0076,0.0085,-25.6265,3.4525,-40.1035,
0.7430,0.2284,-0.0242,1.0035,-0.0156,0.0341,-0.0262,0.0041,-0.0076,0.0085,-25.5919,3.4465,-40.0908,
0.7760,0.2296,-0.0237,1.0034,-0.0156,0.0341,-0.0262,0.0041,-0.0076,0.0085,-25.5919,3.4465,-40.0908,
0.7770,0.2296,-0.0237,1.0034,-0.0156,0.0341,-0.0262,-0.0002,-0.0107,0.0039,-25.5919,3.4465,-40.0908,
0.7780,0.2285,-0.0246,1.0047,-0.0156,0.0341,-0.0262,-0.0002,-0.0107,0.0039,-25.5919,3.4465,-40.0908,
0.7890,0.2285,-0.0246,1.0047,-0.0040,0.0028,0.0321,-0.0002,-0.0107,0.0039,-25.5919,3.4465,-40.0908,
0.7900,0.2278,-0.0242,1.0006,-0.0040,0.0028,0.0321,-0.0002,-0.0107,0.0039,-25.5919,3.4465,-40.0908,
0.8020,0.2278,-0.0242,1.0006,-0.0040,0.0028,0.0321,-0.0002,-0.0107,0.0039,-25.5661,3.4408,-40.0774,
0.8420,0.2278,-0.0242,1.0006,-0.0040,0.0028,0.0321,-0.0023,-0.0052,0.0006,-25.5661,3.4408,-40.0774,
0.8430,0.2274,-0.0227,1.0069,-0.0040,0.0028,0.0321,-0.0023,-0.0052,0.0006,-25.5661,3.4408,-40.0774,
0.8440,0.2254,-0.0209,1.0080,-0.0040,0.0028,0.0321,-0.0023,-0.0052,0.0006,-25.5661,3.4408,-40.0774,
0.8480,0.2250,-0.0210,1.0078,-0.0040,0.0028,0.0321,-0.0023,-0.0052,0.0006,-25.5661,3.4408,-40.0774,
0.8490,0.2250,-0.0210,1.0078,-0.0040,0.0028,0.0321,-0.0014,-0.0000,-0.0000,-25.5661,3.4408,-40.0774,
0.8490,0.2250,-0.0210,1.0078,0.0316,-0.0081,-0.0409,-0.0014,-0.0000,-0.0000,-25.5661,3.4408,-40.0774,
0.8610,0.2250,-0.0210,1.0078,0.0316,-0.0081,-0.0409,-0.0014,-0.0000,-0.0000,-25.5768,3.4091,-40.0565,
0.9080,0.2254,-0.0210,1.0034,0.0316,-0.0081,-0.0409,-0.0014,-0.0000,-0.0000,-25.5768,3.4091,-40.0565,
0.9080,0.2254,-0.0210,1.0034,0.0316,-0.0081,-0.0409,-0.0005,0.0030,0.0003,-25.5768,3.4091,-40.0565,
0.9090,0.2234,-0.0218,1.0102,0.0316,-0.0081,-0.0409,-0.0005,0.0030,0.0003,-25.5768,3.4091,-40.0565,
0.9090,0.2229,-0.0210,1.0071,0.0316,-0.0081,-0.0409,-0.0005,0.0030,0.0003,-25.5768,3.4091,-40.0565,
0.9260,0.2229,-0.0210,1.0071,0.0088,0.0175,-0.0013,-0.0005,0.0030,0.0003,-25.5768,3.4091,-40.0565,
0.9260,0.2229,-0.0210,1.0071,0.0088,0.0175,-0.0013,-0.0014,0.0067,0.0033,-25.5768,3.4091,-40.0565,
0.9270,0.2224,-0.0198,1.0068,0.0088,0.0175,-0.0013,-0.0014,0.0067,0.0033,-25.5768,3.4091,-40.0565,
0.9420,0.2224,-0.0198,1.0068,0.0088,0.0175,-0.0013,-0.0014,0.0067,0.0033,-25.5953,3.4164,-40.0300,
0.9750,0.2224,-0.0198,1.0068,0.0088,0.0175,-0.0013,-0.0020,0.0043,0.0036,-25.5953,3.4164,-40.0300,
0.9750,0.2224,-0.0200,1.0045,0.0088,0.0175,-0.0013,-0.0020,0.0043,0.0036,-25.5953,3.4164,-40.0300,
0.9760,0.2232,-0.0210,1.0064,0.0088,0.0175,-0.0013,-0.0020,0.0043,0.0036,-25.5953,3.4164,-40.0300,
0.9860,0.2232,-0.0210,1.0064,-0.0139,0.0207,-0.0007,-0.0020,0.0043,0.0036,-25.5953,3.4164,-40.0300,
0.9870,0.2230,-0.0215,1.0047,-0.0139,0.0207,-0.0007,-0.0020,0.0043,0.0036,-25.5953,3.4164,-40.0300,
1.0030,0.2230,-0.0215,1.0047,-0.0139,0.0207,-0.0007,-0.0020,0.0043,0.0036,-25.6177,3.3977,-40.0739,
1.0430,0.2230,-0.0215,1.0047,-0.0139,0.0207,-0.0007,-0.0017,0.0076,0.0027,-25.6177,3.3977,-40.0739,
1.0440,0.2228,-0.0202,1.0076,-0.0139,0.0207,-0.0007,-0.0017,0.0076,0.0027,-25.6177,3.3977,-40.0739,
1.0460,0.2240,-0.0190,1.0063,-0.0139,0.0207,-0.0007,-0.0017,0.0076,0.0027,-25.6177,3.3977,-40.0739,
1.0610,0.2240,-0.0190,1.0063,-0.0139,0.0207,-0.0007,-0.0051,0.0076,0.0027,-25.6177,3.3977,-40.0739,
1.0620,0.2255,-0.0211,1.0062,-0.0139,0.0207,-0.0007,-0.0051,0.0076,0.0027,-25.6177,3.3977,-40.0739,
1.0630,0.2255,-0.0211,1.0062,-0.0139,0.0207,-0.0007,-0.0051,0.0076,0.0027,-25.5757,3.4134,-40.0843,
1.0640,0.2243,-0.0235,1.0050,-0.0139,0.0207,-0.0007,-0.0051,0.0076,0.0027,-25.5757,3.4134,-40.0843,
1.0650,0.2243,-0.0235,1.0050,-0.0090,0.0237,-0.0172,-0.0051,0.0076,0.0027,-25.5757,3.4134,-40.0843,
1.0960,0.2243,-0.0235,1.0050,-0.0090,0.0237,-0.0172,-0.0112,0.0116,0.0036,-25.5757,3.4134,-40.0843,
1.0970,0.2233,-0.0234,1.0060,-0.0090,0.0237,-0.0172,-0.0112,0.0116,0.0036,-25.5757,3.4134,-40.0843,
1.1080,0.2232,-0.0254,1.0266,-0.0090,0.0237,-0.0172,-0.0112,0.0116,0.0036,-25.5757,3.4134,-40.0843,
1.1220,0.2232,-0.0254,1.0266,0.0024,0.0237,-0.0086,-0.0112,0.0116,0.0036,-25.5757,3.4134,-40.0843,
1.1240,0.2232,-0.0279,0.9985,0.0024,0.0237,-0.0086,-0.0112,0.0116,0.0036,-25.5757,3.4134,-40.0843,
1.1250,0.2232,-0.0279,0.9985,0.0024,0.0237,-0.0086,-0.0072,-0.0095,0.0012,-25.5757,3.4134,-40.0843,
1.1420,0.2232,-0.0279,0.9985,0.0024,0.0237,-0.0086,-0.0072,-0.0095,0.0012,-25.5932,3.4066,-40.0892,
1.1430,0.2255,-0.0262,0.9861,0.0024,0.0237,-0.0086,-0.0072,-0.0095,0.0012,-25.5932,3.4066,-40.0892,
1.1750,0.2282,-0.0198,1.0012,0.0024,0.0237,-0.0086,-0.0072,-0.0095,0.0012,-25.5932,3.4066,-40.0892,
1.1760,0.2282,-0.0198,1.0012,0.0024,0.0237,-0.0086,-0.0087,0.0034,-0.0000,-25.5932,3.4066,-40.0892,
1.2000,0.2282,-0.0198,1.0012,0.0024,0.0237,-0.0086,-0.0008,0.0125,0.0003,-25.5932,3.4066,-40.0892,
1.2010,0.2267,-0.0174,1.0256,0.0024,0.0237,-0.0086,-0.0008,0.0125,0.0003,-25.5932,3.4066,-40.0892,
1.2020,0.2267,-0.0174,1.0256,0.0009,-0.0194,0.0102,-0.0008,0.0125,0.0003,-25.5932,3.4066,-40.0892,
1.2030,0.2289,-0.0222,0.9971,0.0009,-0.0194,0.0102,-0.0008,0.0125,0.0003,-25.5932,3.4066,-40.0892,
1.2040,0.2289,-0.0222,0.9971,0.0009,-0.0194,0.0102,-0.0008,0.0125,0.0003,-25.5949,3.3892,-40.1218,
1.2430,0.2214,-0.0217,0.9913,0.0009,-0.0194,0.0102,-0.0008,0.0125,0.0003,-25.5949,3.3892,-40.1218,
1.2440,0.2173,-0.0204,1.0294,0.0009,-0.0194,0.0102,-0.0008,0.0125,0.0003,-25.5949,3.3892,-40.1218,
1.2450,0.2173,-0.0204,1.0294,0.0009,-0.0194,0.0102,-0.0078,0.0311,0.0024,-25.5949,3.3892,-40.1218,
1.2580,0.2173,-0.0204,1.0294,0.0468,0.0377,-0.0361,-0.0078,0.0311,0.0024,-25.5949,3.3892,-40.1218,
1.2580,0.2144,-0.0224,1.0142,0.0468,0.0377,-0.0361,-0.0078,0.0311,0.0024,-25.5949,3.3892,-40.1218,
1.2620,0.2144,-0.0224,1.0142,0.0468,0.0377,-0.0361,-0.0078,0.0311,0.0024,-25.5769,3.3961,-40.1264,
1.3090,0.2150,-0.0222,1.0087,0.0468,0.0377,-0.0361,-0.0078,0.0311,0.0024,-25.5769,3.3961,-40.1264,
1.3100,0.2150,-0.0222,1.0087,0.0468,0.0377,-0.0361,-0.0096,-0.0055,0.0006,-25.5769,3.3961,-40.1264,
1.3100,0.2212,-0.0223,1.0086,0.0468,0.0377,-0.0361,-0.0096,-0.0055,0.0006,-25.5769,3.3961,-40.1264,
1.3380,0.2212,-0.0223,1.0086,0.0468,0.0377,-0.0361,-0.0081,-0.0021,-0.0022,-25.5769,3.3961,-40.1264,
1.3390,0.2257,-0.0220,1.0017,0.0468,0.0377,-0.0361,-0.0081,-0.0021,-0.0022,-25.5769,3.3961,-40.1264,
1.3400,0.2257,-0.0220,1.0017,-0.0505,0.0276,0.0328,-0.0081,-0.0021,-0.0022,-25.5769,3.3961,-40.1264,
1.3410,0.2247,-0.0222,1.0070,-0.0505,0.0276,0.0328,-0.0081,-0.0021,-0.0022,-25.5769,3.3961,-40.1264,
1.3420,0.2247,-0.0222,1.0070,-0.0505,0.0276,0.0328,-0.0081,-0.0021,-0.0022,-25.5950,3.3916,-40.1411,
1.3760,0.2212,-0.0224,1.0060,-0.0505,0.0276,0.0328,-0.0081,-0.0021,-0.0022,-25.5950,3.3916,-40.1411,
1.3770,0.2212,-0.0224,1.0060,-0.0505,0.0276,0.0328,-0.0078,0.0113,0.0003,-25.5950,3.3916,-40.1411,
1.3770,0.2208,-0.0244,1.0082,-0.0505,0.0276,0.0328,-0.0078,0.0113,0.0003,-25.5950,3.3916,-40.1411,
1.3940,0.2208,-0.0244,1.0082,-0.0505,0.0276,0.0328,-0.0075,0.0137,0.0030,-25.5950,3.3916,-40.1411,
1.3950,0.2207,-0.0254,1.0113,-0.0505,0.0276,0.0328,-0.0075,0.0137,0.0030,-25.5950,3.3916,-40.1411,
1.3960,0.2207,-0.0254,1.0113,0.0135,0.0244,-0.0096,-0.0075,0.0137,0.0030,-25.5950,3.3916,-40.1411,
1.4040,0.2207,-0.0254,1.0113,0.0135,0.0244,-0.0096,-0.0075,0.0137,0.0030,-25.5628,3.4139,-40.1557,
1.4420,0.2196,-0.0245,1.0107,0.0135,0.0244,-0.0096,-0.0075,0.0137,0.0030,-25.5628,3.4139,-40.1557,
1.4430,0.2196,-0.0245,1.0107,0.0135,0.0244,-0.0096,-0.0023,0.0076,0.0021,-25.5628,3.4139,-40.1557,
1.4440,0.2205,-0.0257,1.0118,0.0135,0.0244,-0.0096,-0.0023,0.0076,0.0021,-25.5628,3.4139,-40.1557,
1.4610,0.2185,-0.0246,1.0125,0.0135,0.0244,-0.0096,-0.0023,0.0076,0.0021,-25.5628,3.4139,-40.1557,
1.4620,0.2185,-0.0246,1.0125,0.0135,0.0244,-0.0096,-0.0023,0.0076,0.0021,-25.4983,3.4161,-40.1852,
1.4720,0.2186,-0.0243,1.0131,0.0135,0.0244,-0.0096,-0.0023,0.0076,0.0021,-25.4983,3.4161,-40.1852,
1.4740,0.2186,-0.0243,1.0131,0.0135,0.0244,-0.0096,0.0001,0.0012,-0.0000,-25.4983,3.4161,-40.1852,
1.4740,0.2186,-0.0243,1.0131,-0.0046,0.0054,0.0102,0.0001,0.0012,-0.0000,-25.4983,3.4161,-40.1852,
1.5080,0.2202,-0.0249,1.0057,-0.0046,0.0054,0.0102,0.0001,0.0012,-0.0000,-25.4983,3.4161,-40.1852,
1.5320,0.2202,-0.0249,1.0057,-0.0046,0.0054,0.0102,-0.0026,-0.0070,-0.0031,-25.4983,3.4161,-40.1852,
1.5330,0.2219,-0.0216,1.0047,-0.0046,0.0054,0.0102,-0.0026,-0.0070,-0.0031,-25.4983,3.4161,-40.1852,
1.5340,0.2219,-0.0216,1.0047,-0.0171,0.0003,0.0400,-0.0026,-0.0070,-0.0031,-25.4983,3.4161,-40.1852,
1.5340,0.2225,-0.0193,1.0023,-0.0171,0.0003,0.0400,-0.0026,-0.0070,-0.0031,-25.4983,3.4161,-40.1852,
1.5420,0.2225,-0.0193,1.0023,-0.0171,0.0003,0.0400,-0.0026,-0.0070,-0.0031,-25.4450,3.4272,-40.1796,
1.5750,0.2218,-0.0209,1.0046,-0.0171,0.0003,0.0400,-0.0026,-0.0070,-0.0031,-25.4450,3.4272,-40.1796,
1.5760,0.2218,-0.0209,1.0046,-0.0171,0.0003,0.0400,-0.0087,0.0067,-0.0000,-25.4450,3.4272,-40.1796,
1.5770,0.2188,-0.0218,1.0073,-0.0171,0.0003,0.0400,-0.0087,0.0067,-0.0000,-25.4450,3.4272,-40.1796,
1.5960,0.2188,-0.0218,1.0073,-0.0171,0.0003,0.0400,-0.0139,0.0046,-0.0000,-25.4450,3.4272,-40.1796,
1.5970,0.2167,-0.0235,1.0113,-0.0171,0.0003,0.0400,-0.0139,0.0046,-0.0000,-25.4450,3.4272,-40.1796,
1.6010,0.2167,-0.0235,1.0113,-0.0171,0.0003,0.0400,-0.0139,0.0046,-0.0000,-25.4309,3.4042,-40.1830,
1.6090,0.2167,-0.0235,1.0113,0.0074,0.0352,-0.0349,-0.0139,0.0046,-0.0000,-25.4309,3.4042,-40.1830,
1.6100,0.2164,-0.0229,1.0104,0.0074,0.0352,-0.0349,-0.0139,0.0046,-0.0000,-25.4309,3.4042,-40.1830,
1.6420,0.2194,-0.0235,1.0131,0.0074,0.0352,-0.0349,-0.0139,0.0046,-0.0000,-25.4309,3.4042,-40.1830,
1.6430,0.2194,-0.0235,1.0131,0.0074,0.0352,-0.0349,-0.0051,-0.0018,-0.0003,-25.4309,3.4042,-40.1830,
1.6610,0.2194,-0.0235,1.0131,0.0074,0.0352,-0.0349,-0.0051,-0.0018,-0.0003,-25.4239,3.4182,-40.1856,
1.6620,0.2214,-0.0235,1.0115,0.0074,0.0352,-0.0349,-0.0051,-0.0018,-0.0003,-25.4239,3.4182,-40.1856,
1.6670,0.2214,-0.0239,1.0102,0.0074,0.0352,-0.0349,-0.0051,-0.0018,-0.0003,-25.4239,3.4182,-40.1856,
1.6670,0.2214,-0.0239,1.0102,0.0074,0.0352,-0.0349,-0.0005,0.0009,0.0006,-25.4239,3.4182,-40.1856,
1.6680,0.2214,-0.0239,1.0102,-0.0260,0.0244,0.0102,-0.0005,0.0009,0.0006,-25.4239,3.4182,-40.1856,
1.7080,0.2214,-0.0239,1.0102,-0.0260,0.0244,0.0102,-0.0011,0.0052,0.0012,-25.4239,3.4182,-40.1856,
1.7090,0.2218,-0.0234,1.0102,-0.0260,0.0244,0.0102,-0.0011,0.0052,0.0012,-25.4239,3.4182,-40.1856,
1.7090,0.2195,-0.0233,1.0057,-0.0260,0.0244,0.0102,-0.0011,0.0052,0.0012,-25.4239,3.4182,-40.1856,
1.7410,0.2195,-0.0233,1.0057,-0.0260,0.0244,0.0102,-0.0011,0.0052,0.0012,-25.4574,3.4275,-40.2033,
1.7430,0.2199,-0.0227,1.0054,-0.0260,0.0244,0.0102,-0.0011,0.0052,0.0012,-25.4574,3.4275,-40.2033,
1.7450,0.2190,-0.0244,1.0071,-0.0260,0.0244,0.0102,-0.0011,0.0052,0.0012,-25.4574,3.4275,-40.2033,
1.7460,0.2190,-0.0244,1.0071,-0.0260,0.0244,0.0102,-0.0075,0.0030,0.0009,-25.4574,3.4275,-40.2033,
1.7460,0.2190,-0.0244,1.0071,0.0056,0.0164,0.0311,-0.0075,0.0030,0.0009,-25.4574,3.4275,-40.2033,
1.7740,0.2202,-0.0240,1.0067,0.0056,0.0164,0.0311,-0.0075,0.0030,0.0009,-25.4574,3.4275,-40.2033,
1.8020,0.2202,-0.0240,1.0067,0.0056,0.0164,0.0311,-0.0057,0.0043,0.0003,-25.4574,3.4275,-40.2033,
1.8040,0.2202,-0.0240,1.0067,0.0056,0.0164,0.0311,-0.0057,0.0043,0.0003,-25.4742,3.4280,-40.2182,
1.8050,0.2190,-0.0237,1.0090,0.0056,0.0164,0.0311,-0.0057,0.0043,0.0003,-25.4742,3.4280,-40.2182,
1.8060,0.2197,-0.0239,1.0089,0.0056,0.0164,0.0311,-0.0057,0.0043,0.0003,-25.4742,3.4280,-40.2182,
1.8070,0.2197,-0.0239,1.0089,-0.0010,0.0176,-0.0168,-0.0057,0.0043,0.0003,-25.4742,3.4280,-40.2182,
1.8410,0.2183,-0.0240,1.0111,-0.0010,0.0176,-0.0168,-0.0057,0.0043,0.0003,-25.4742,3.4280,-40.2182,
1.8420,0.2183,-0.0240,1.0111,-0.0010,0.0176,-0.0168,-0.0051,0.0092,0.0015,-25.4742,3.4280,-40.2182,
1.8620,0.2183,-0.0229,1.0113,-0.0010,0.0176,-0.0168,-0.0051,0.0092,0.0015,-25.4742,3.4280,-40.2182,
1.8620,0.2183,-0.0229,1.0113,-0.0010,0.0176,-0.0168,-0.0051,0.0092,0.0015,-25.4246,3.4480,-40.2385,
1.8830,0.2175,-0.0238,1.0086,-0.0010,0.0176,-0.0168,-0.0051,0.0092,0.0015,-25.4246,3.4480,-40.2385,
1.8850,0.2175,-0.0238,1.0086,-0.0010,0.0176,-0.0168,-0.0038,0.0085,0.0003,-25.4246,3.4480,-40.2385,
1.8860,0.2157,-0.0228,1.0107,-0.0010,0.0176,-0.0168,-0.0038,0.0085,0.0003,-25.4246,3.4480,-40.2385,
1.8860,0.2157,-0.0228,1.0107,0.0019,0.0154,0.0018,-0.0038,0.0085,0.0003,-25.4246,3.4480,-40.2385,
1.9080,0.2168,-0.0228,1.0089,0.0019,0.0154,0.0018,-0.0038,0.0085,0.0003,-25.4246,3.4480,-40.2385,
1.9090,0.2168,-0.0228,1.0089,0.0019,0.0154,0.0018,-0.0057,0.0092,-0.0000,-25.4246,3.4480,-40.2385,
1.9410,0.2168,-0.0228,1.0089,0.0019,0.0154,0.0018,-0.0075,0.0088,0.0012,-25.4246,3.4480,-40.2385,
1.9420,0.2173,-0.0231,1.0065,0.0019,0.0154,0.0018,-0.0075,0.0088,0.0012,-25.4246,3.4480,-40.2385,
1.9420,0.2173,-0.0231,1.0065,0.0019,0.0154,0.0018,-0.0075,0.0088,0.0012,-25.4403,3.4488,-40.2509,
1.9430,0.2174,-0.0240,1.0070,0.0019,0.0154,0.0018,-0.0075,0.0088,0.0012,-25.4403,3.4488,-40.2509,
1.9430,0.2174,-0.0240,1.0070,-0.0119,0.0237,0.0155,-0.0075,0.0088,0.0012,-25.4403,3.4488,-40.2509,
1.9750,0.2185,-0.0227,1.0085,-0.0119,0.0237,0.0155,-0.0075,0.0088,0.0012,-25.4403,3.4488,-40.2509,
2.0020,0.2182,-0.0245,1.0064,-0.0119,0.0237,0.0155,-0.0075,0.0088,0.0012,-25.4403,3.4488,-40.2509,
2.0050,0.2182,-0.0245,1.0064,-0.0119,0.0237,0.0155,-0.0093,0.0085,0.0009,-25.4403,3.4488,-40.2509,
2.0060,0.2180,-0.0266,1.0092,-0.0119,0.0237,0.0155,-0.0093,0.0085,0.0009,-25.4403,3.4488,-40.2509,
2.0060,0.2180,-0.0266,1.0092,-0.0119,0.0237,0.0155,-0.0093,0.0085,0.0009,-25.4435,3.4552,-40.2816,
2.0180,0.2180,-0.0266,1.0092,-0.0119,0.0237,0.0155,-0.0063,0.0217,0.0018,-25.4435,3.4552,-40.2816,
2.0190,0.2167,-0.0270,1.0063,-0.0119,0.0237,0.0155,-0.0063,0.0217,0.0018,-25.4435,3.4552,-40.2816,
2.0200,0.2167,-0.0270,1.0063,-0.0010,0.0257,-0.0110,-0.0063,0.0217,0.0018,-25.4435,3.4552,-40.2816,
2.0410,0.2140,-0.0244,1.0214,-0.0010,0.0257,-0.0110,-0.0063,0.0217,0.0018,-25.4435,3.4552,-40.2816,
2.0610,0.2140,-0.0244,1.0214,-0.0010,0.0257,-0.0110,-0.0066,0.0070,-0.0022,-25.4435,3.4552,-40.2816,
2.0620,0.2125,-0.0244,1.0207,-0.0010,0.0257,-0.0110,-0.0066,0.0070,-0.0022,-25.4435,3.4552,-40.2816,
2.0630,0.2125,-0.0244,1.0207,-0.0010,0.0257,-0.0110,-0.0066,0.0070,-0.0022,-25.3950,3.4622,-40.3024,
2.0770,0.2134,-0.0261,1.0020,-0.0010,0.0257,-0.0110,-0.0066,0.0070,-0.0022,-25.3950,3.4622,-40.3024,
2.0780,0.2134,-0.0261,1.0020,0.0035,0.0061,-0.0121,-0.0066,0.0070,-0.0022,-25.3950,3.4622,-40.3024,
2.1080,0.2134,-0.0261,1.0020,0.0035,0.0061,-0.0121,-0.0060,-0.0049,-0.0013,-25.3950,3.4622,-40.3024,
2.1080,0.2178,-0.0211,0.9839,0.0035,0.0061,-0.0121,-0.0060,-0.0049,-0.0013,-25.3950,3.4622,-40.3024,
2.1410,0.2202,-0.0220,1.0207,0.0035,0.0061,-0.0121,-0.0060,-0.0049,-0.0013,-25.3950,3.4622,-40.3024,
2.1420,0.2202,-0.0220,1.0207,0.0035,0.0061,-0.0121,-0.0142,0.0235,0.0033,-25.3950,3.4622,-40.3024,
2.1420,0.2202,-0.0220,1.0207,0.0035,0.0061,-0.0121,-0.0142,0.0235,0.0033,-25.3503,3.4901,-40.3038,
2.1430,0.2202,-0.0190,1.0157,0.0035,0.0061,-0.0121,-0.0142,0.0235,0.0033,-25.3503,3.4901,-40.3038,
2.1560,0.2202,-0.0190,1.0157,-0.0183,0.0192,-0.0009,-0.0142,0.0235,0.0033,-25.3503,3.4901,-40.3038,
2.1570,0.2172,-0.0254,0.9953,-0.0183,0.0192,-0.0009,-0.0142,0.0235,0.0033,-25.3503,3.4901,-40.3038,
2.1760,0.2135,-0.0253,1.0050,-0.0183,0.0192,-0.0009,-0.0142,0.0235,0.0033,-25.3503,3.4901,-40.3038,
2.1770,0.2135,-0.0253,1.0050,-0.0183,0.0192,-0.0009,-0.0057,0.0458,0.0027,-25.3503,3.4901,-40.3038,
2.2020,0.2135,-0.0253,1.0050,-0.0183,0.0192,-0.0009,-0.0057,0.0458,0.0027,-25.3011,3.5005,-40.3267,
2.2030,0.2080,-0.0270,1.0264,-0.0183,0.0192,-0.0009,-0.0057,0.0458,0.0027,-25.3011,3.5005,-40.3267,
2.2140,0.2041,-0.0266,1.0131,-0.0183,0.0192,-0.0009,-0.0057,0.0458,0.0027,-25.3011,3.5005,-40.3267,
2.2150,0.2041,-0.0266,1.0131,-0.0183,0.0192,-0.0009,-0.0112,0.0263,0.0018,-25.3011,3.5005,-40.3267,
2.2170,0.2041,-0.0266,1.0131,0.0519,0.0500,-0.0107,-0.0112,0.0263,0.0018,-25.3011,3.5005,-40.3267,
2.2410,0.2080,-0.0266,1.0114,0.0519,0.0500,-0.0107,-0.0112,0.0263,0.0018,-25.3011,3.5005,-40.3267,
2.2630,0.2080,-0.0266,1.0114,0.0519,0.0500,-0.0107,-0.0136,-0.0009,-0.0037,-25.3011,3.5005,-40.3267,
2.2640,0.2140,-0.0248,1.0117,0.0519,0.0500,-0.0107,-0.0136,-0.0009,-0.0037,-25.3011,3.5005,-40.3267,
2.2650,0.2140,-0.0248,1.0117,0.0519,0.0500,-0.0107,-0.0136,-0.0009,-0.0037,-25.1980,3.5192,-40.3452,
2.2930,0.2140,-0.0248,1.0117,-0.0461,0.0126,0.0421,-0.0136,-0.0009,-0.0037,-25.1980,3.5192,-40.3452,
2.2950,0.2180,-0.0242,1.0114,-0.0461,0.0126,0.0421,-0.0136,-0.0009,-0.0037,-25.1980,3.5192,-40.3452,
2.2960,0.2168,-0.0261,1.0109,-0.0461,0.0126,0.0421,-0.0136,-0.0009,-0.0037,-25.1980,3.5192,-40.3452,
2.2960,0.2168,-0.0261,1.0109,-0.0461,0.0126,0.0421,-0.0118,0.0156,-0.0010,-25.1980,3.5192,-40.3452,
2.3410,0.2168,-0.0261,1.0109,-0.0461,0.0126,0.0421,-0.0072,0.0162,-0.0016,-25.1980,3.5192,-40.3452,
2.3420,0.2138,-0.0274,1.0065,-0.0461,0.0126,0.0421,-0.0072,0.0162,-0.0016,-25.1980,3.5192,-40.3452,
2.3420,0.2107,-0.0276,1.0079,-0.0461,0.0126,0.0421,-0.0072,0.0162,-0.0016,-25.1980,3.5192,-40.3452,
2.3430,0.2107,-0.0276,1.0079,-0.0461,0.0126,0.0421,-0.0072,0.0162,-0.0016,-25.1236,3.5267,-40.3745,
2.3530,0.2097,-0.0248,1.0100,-0.0461,0.0126,0.0421,-0.0072,0.0162,-0.0016,-25.1236,3.5267,-40.3745,
2.3540,0.2097,-0.0248,1.0100,0.0307,0.0226,0.0120,-0.0072,0.0162,-0.0016,-25.1236,3.5267,-40.3745,
2.3750,0.2097,-0.0248,1.0100,0.0307,0.0226,0.0120,-0.0057,0.0125,-0.0000,-25.1236,3.5267,-40.3745,
2.3760,0.2092,-0.0237,1.0120,0.0307,0.0226,0.0120,-0.0057,0.0125,-0.0000,-25.1236,3.5267,-40.3745,
2.4010,0.2092,-0.0237,1.0120,0.0307,0.0226,0.0120,-0.0057,0.0125,-0.0000,-25.0607,3.5288,-40.3816,
2.4030,0.2098,-0.0257,1.0141,0.0307,0.0226,0.0120,-0.0057,0.0125,-0.0000,-25.0607,3.5288,-40.3816,
2.4300,0.2087,-0.0271,1.0146,0.0307,0.0226,0.0120,-0.0057,0.0125,-0.0000,-25.0607,3.5288,-40.3816,
2.4320,0.2087,-0.0271,1.0146,0.0307,0.0226,0.0120,-0.0041,0.0110,0.0009,-25.0607,3.5288,-40.3816,
2.4320,0.2087,-0.0271,1.0146,-0.0051,0.0160,-0.0163,-0.0041,0.0110,0.0009,-25.0607,3.5288,-40.3816,
2.4330,0.2076,-0.0279,1.0130,-0.0051,0.0160,-0.0163,-0.0041,0.0110,0.0009,-25.0607,3.5288,-40.3816,
2.4630,0.2087,-0.0245,1.0102,-0.0051,0.0160,-0.0163,-0.0041,0.0110,0.0009,-25.0607,3.5288,-40.3816,
2.4640,0.2087,-0.0245,1.0102,-0.0051,0.0160,-0.0163,-0.0041,0.0110,0.0009,-24.9806,3.5417,-40.4147,
2.4650,0.2087,-0.0245,1.0102,-0.0051,0.0160,-0.0163,-0.0057,0.0040,-0.0016,-24.9806,3.5417,-40.4147,
2.4880,0.2087,-0.0245,1.0102,-0.0164,0.0156,0.0301,-0.0057,0.0040,-0.0016,-24.9806,3.5417,-40.4147,
2.4890,0.2090,-0.0232,1.0070,-0.0164,0.0156,0.0301,-0.0057,0.0040,-0.0016,-24.9806,3.5417,-40.4147,
2.4900,0.2090,-0.0232,1.0070,-0.0164,0.0156,0.0301,-0.0075,0.0143,0.0015,-24.9806,3.5417,-40.4147,
2.4900,0.2081,-0.0243,1.0085,-0.0164,0.0156,0.0301,-0.0075,0.0143,0.0015,-24.9806,3.5417,-40.4147,
2.5070,0.2069,-0.0265,1.0085,-0.0164,0.0156,0.0301,-0.0075,0.0143,0.0015,-24.9806,3.5417,-40.4147,
2.5410,0.2064,-0.0259,1.0103,-0.0164,0.0156,0.0301,-0.0075,0.0143,0.0015,-24.9806,3.5417,-40.4147,
2.5420,0.2064,-0.0259,1.0103,-0.0164,0.0156,0.0301,-0.0099,0.0140,0.0027,-24.9806,3.5417,-40.4147,
2.5420,0.2064,-0.0259,1.0103,-0.0164,0.0156,0.0301,-0.0099,0.0140,0.0027,-24.9068,3.5493,-40.4444,
2.5660,0.2073,-0.0266,1.0136,-0.0164,0.0156,0.0301,-0.0099,0.0140,0.0027,-24.9068,3.5493,-40.4444,
2.5670,0.2073,-0.0266,1.0136,-0.0164,0.0156,0.0301,-0.0084,0.0098,0.0018,-24.9068,3.5493,-40.4444,
2.5680,0.2083,-0.0266,1.0151,-0.0164,0.0156,0.0301,-0.0084,0.0098,0.0018,-24.9068,3.5493,-40.4444,
2.5680,0.2083,-0.0266,1.0151,-0.0114,0.0386,-0.0201,-0.0084,0.0098,0.0018,-24.9068,3.5493,-40.4444,
2.5960,0.2085,-0.0266,1.0151,-0.0114,0.0386,-0.0201,-0.0084,0.0098,0.0018,-24.9068,3.5493,-40.4444,
2.6020,0.2085,-0.0266,1.0151,-0.0114,0.0386,-0.0201,-0.0084,0.0098,0.0018,-24.8683,3.5323,-40.4955,
2.6240,0.2090,-0.0273,1.0128,-0.0114,0.0386,-0.0201,-0.0084,0.0098,0.0018,-24.8683,3.5323,-40.4955,
2.6250,0.2083,-0.0266,1.0118,-0.0114,0.0386,-0.0201,-0.0084,0.0098,0.0018,-24.8683,3.5323,-40.4955,
2.6250,0.2083,-0.0266,1.0118,-0.0114,0.0386,-0.0201,-0.0041,0.0088,0.0012,-24.8683,3.5323,-40.4955,
2.6260,0.2083,-0.0266,1.0118,-0.0147,0.0191,0.0140,-0.0041,0.0088,0.0012,-24.8683,3.5323,-40.4955,
2.6610,0.2081,-0.0283,1.0079,-0.0147,0.0191,0.0140,-0.0041,0.0088,0.0012,-24.8683,3.5323,-40.4955,
2.6620,0.2081,-0.0283,1.0079,-0.0147,0.0191,0.0140,-0.0041,0.0131,0.0027,-24.8683,3.5323,-40.4955,
2.6620,0.2081,-0.0283,1.0079,-0.0147,0.0191,0.0140,-0.0041,0.0131,0.0027,-24.8444,3.5437,-40.5705,
2.7020,0.2081,-0.0283,1.0079,0.0073,0.0166,0.0124,-0.0041,0.0131,0.0027,-24.8444,3.5437,-40.5705,
2.7040,0.2081,-0.0283,1.0079,0.0073,0.0166,0.0124,-0.0078,0.0140,0.0027,-24.8444,3.5437,-40.5705,
2.7040,0.2075,-0.0278,1.0069,0.0073,0.0166,0.0124,-0.0078,0.0140,0.0027,-24.8444,3.5437,-40.5705,
2.7050,0.2080,-0.0277,1.0075,0.0073,0.0166,0.0124,-0.0078,0.0140,0.0027,-24.8444,3.5437,-40.5705,
2.7070,0.2075,-0.0267,1.0084,0.0073,0.0166,0.0124,-0.0078,0.0140,0.0027,-24.8444,3.5437,-40.5705,
2.7430,0.2075,-0.0267,1.0084,0.0073,0.0166,0.0124,-0.0084,0.0150,0.0009,-24.8444,3.5437,-40.5705,
2.7440,0.2075,-0.0267,1.0084,0.0073,0.0166,0.0124,-0.0084,0.0150,0.0009,-24.8124,3.5419,-40.6137,
2.7450,0.2063,-0.0265,1.0101,0.0073,0.0166,0.0124,-0.0084,0.0150,0.0009,-24.8124,3.5419,-40.6137,
2.7450,0.2052,-0.0268,1.0097,0.0073,0.0166,0.0124,-0.0084,0.0150,0.0009,-24.8124,3.5419,-40.6137,
2.7620,0.2052,-0.0268,1.0097,0.0099,0.0140,-0.0345,-0.0084,0.0150,0.0009,-24.8124,3.5419,-40.6137,
2.7630,0.2052,-0.0268,1.0097,0.0099,0.0140,-0.0345,-0.0072,0.0186,0.0006,-24.8124,3.5419,-40.6137,
2.7640,0.2057,-0.0271,1.0124,0.0099,0.0140,-0.0345,-0.0072,0.0186,0.0006,-24.8124,3.5419,-40.6137,
2.8010,0.2037,-0.0273,1.0128,0.0099,0.0140,-0.0345,-0.0072,0.0186,0.0006,-24.8124,3.5419,-40.6137,
2.8020,0.2037,-0.0273,1.0128,0.0099,0.0140,-0.0345,-0.0093,0.0174,0.0003,-24.8124,3.5419,-40.6137,
2.8030,0.2037,-0.0273,1.0128,0.0099,0.0140,-0.0345,-0.0093,0.0174,0.0003,-24.7970,3.5449,-40.6073,
2.8040,0.2017,-0.0262,1.0108,0.0099,0.0140,-0.0345,-0.0093,0.0174,0.0003,-24.7970,3.5449,-40.6073,
2.8390,0.2017,-0.0262,1.0108,-0.0007,0.0255,-0.0027,-0.0093,0.0174,0.0003,-24.7970,3.5449,-40.6073,
2.8400,0.2017,-0.0262,1.0108,-0.0007,0.0255,-0.0027,-0.0118,0.0153,0.0021,-24.7970,3.5449,-40.6073,
2.8400,0.2018,-0.0262,1.0111,-0.0007,0.0255,-0.0027,-0.0118,0.0153,0.0021,-24.7970,3.5449,-40.6073,
2.8410,0.2030,-0.0267,1.0106,-0.0007,0.0255,-0.0027,-0.0118,0.0153,0.0021,-24.7970,3.5449,-40.6073,
2.8620,0.2028,-0.0270,1.0095,-0.0007,0.0255,-0.0027,-0.0118,0.0153,0.0021,-24.7970,3.5449,-40.6073,
2.8630,0.2028,-0.0270,1.0095,-0.0007,0.0255,-0.0027,-0.0118,0.0153,0.0021,-24.7390,3.5543,-40.6309,
2.8970,0.2031,-0.0259,1.0090,-0.0007,0.0255,-0.0027,-0.0118,0.0153,0.0021,-24.7390,3.5543,-40.6309,
2.8980,0.2031,-0.0259,1.0090,-0.0007,0.0255,-0.0027,-0.0112,0.0119,0.0012,-24.7390,3.5543,-40.6309,
2.8980,0.2041,-0.0259,1.0108,-0.0007,0.0255,-0.0027,-0.0112,0.0119,0.0012,-24.7390,3.5543,-40.6309,
2.8990,0.2041,-0.0259,1.0108,-0.0209,0.0330,-0.0022,-0.0112,0.0119,0.0012,-24.7390,3.5543,-40.6309,
2.9410,0.2041,-0.0259,1.0108,-0.0209,0.0330,-0.0022,-0.0133,0.0137,0.0024,-24.7390,3.5543,-40.6309,
2.9420,0.2043,-0.0263,1.0101,-0.0209,0.0330,-0.0022,-0.0133,0.0137,0.0024,-24.7390,3.5543,-40.6309,
2.9420,0.2047,-0.0293,1.0070,-0.0209,0.0330,-0.0022,-0.0133,0.0137,0.0024,-24.7390,3.5543,-40.6309,
2.9430,0.2047,-0.0293,1.0070,-0.0209,0.0330,-0.0022,-0.0133,0.0137,0.0024,-24.6938,3.5558,-40.6659,
2.9760,0.2036,-0.0325,1.0107,-0.0209,0.0330,-0.0022,-0.0133,0.0137,0.0024,-24.6938,3.5558,-40.6659,
2.9760,0.2036,-0.0325,1.0107,-0.0209,0.0330,-0.0022,-0.0109,0.0223,0.0033,-24.6938,3.5558,-40.6659,
2.9770,0.2014,-0.0303,1.0120,-0.0209,0.0330,-0.0022,-0.0109,0.0223,0.0033,-24.6938,3.5558,-40.6659,
2.9770,0.2014,-0.0303,1.0120,0.0056,0.0402,-0.0144,-0.0109,0.0223,0.0033,-24.6938,3.5558,-40.6659,
3.0010,0.2014,-0.0303,1.0120,0.0056,0.0402,-0.0144,-0.0109,0.0223,0.0033,-24.6550,3.5455,-40.6689,
3.0020,0.1982,-0.0298,1.0280,0.0056,0.0402,-0.0144,-0.0109,0.0223,0.0033,-24.6550,3.5455,-40.6689,
3.0030,0.1982,-0.0298,1.0280,0.0056,0.0402,-0.0144,-0.0121,0.0208,0.0027,-24.6550,3.5455,-40.6689,
3.0340,0.1982,-0.0298,1.0280,0.0056,0.0402,-0.0144,0.0038,-0.0086,-0.0013,-24.6550,3.5455,-40.6689,
3.0340,0.1986,-0.0299,1.0190,0.0056,0.0402,-0.0144,0.0038,-0.0086,-0.0013,-24.6550,3.5455,-40.6689,
3.0350,0.1996,-0.0314,0.9938,0.0056,0.0402,-0.0144,0.0038,-0.0086,-0.0013,-24.6550,3.5455,-40.6689,
3.0360,0.1996,-0.0314,0.9938,0.0017,0.0023,-0.0147,0.0038,-0.0086,-0.0013,-24.6550,3.5455,-40.6689,
3.0610,0.2054,-0.0256,1.0003,0.0017,0.0023,-0.0147,0.0038,-0.0086,-0.0013,-24.6550,3.5455,-40.6689,
3.0620,0.2054,-0.0256,1.0003,0.0017,0.0023,-0.0147,0.0038,-0.0086,-0.0013,-24.6515,3.5636,-40.6658,
3.0960,0.2034,-0.0271,1.0282,0.0017,0.0023,-0.0147,0.0038,-0.0086,-0.0013,-24.6515,3.5636,-40.6658,
3.0970,0.2034,-0.0271,1.0282,0.0017,0.0023,-0.0147,-0.0103,0.0107,0.0021,-24.6515,3.5636,-40.6658,
3.0980,0.2072,-0.0256,1.0031,0.0017,0.0023,-0.0147,-0.0103,0.0107,0.0021,-24.6515,3.5636,-40.6658,
3.1120,0.2006,-0.0292,0.9971,0.0017,0.0023,-0.0147,-0.0103,0.0107,0.0021,-24.6515,3.5636,-40.6658,
3.1130,0.2006,-0.0292,0.9971,0.0017,0.0023,-0.0147,-0.0023,0.0202,0.0033,-24.6515,3.5636,-40.6658,
3.1140,0.2006,-0.0292,0.9971,-0.0197,0.0102,-0.0189,-0.0023,0.0202,0.0033,-24.6515,3.5636,-40.6658,
3.1410,0.2006,-0.0292,0.9971,-0.0197,0.0102,-0.0189,-0.0023,0.0202,0.0033,-24.6405,3.5858,-40.6525,
3.1420,0.1969,-0.0273,1.0213,-0.0197,0.0102,-0.0189,-0.0023,0.0202,0.0033,-24.6405,3.5858,-40.6525,
3.1720,0.1969,-0.0273,1.0213,0.0322,0.0368,-0.0079,-0.0023,0.0202,0.0033,-24.6405,3.5858,-40.6525,
3.1720,0.1969,-0.0273,1.0213,0.0322,0.0368,-0.0079,-0.0081,0.0308,0.0039,-24.6405,3.5858,-40.6525,
3.1730,0.1914,-0.0323,1.0213,0.0322,0.0368,-0.0079,-0.0081,0.0308,0.0039,-24.6405,3.5858,-40.6525,
3.1740,0.1907,-0.0314,1.0129,0.0322,0.0368,-0.0079,-0.0081,0.0308,0.0039,-24.6405,3.5858,-40.6525,
3.2010,0.1907,-0.0314,1.0129,0.0322,0.0368,-0.0079,-0.0075,-0.0052,-0.0006,-24.6405,3.5858,-40.6525,
3.2020,0.1952,-0.0304,1.0136,0.0322,0.0368,-0.0079,-0.0075,-0.0052,-0.0006,-24.6405,3.5858,-40.6525,
3.2020,0.1952,-0.0304,1.0136,0.0322,0.0368,-0.0079,-0.0075,-0.0052,-0.0006,-24.6014,3.6026,-40.6460,
3.2430,0.2019,-0.0292,1.0109,0.0322,0.0368,-0.0079,-0.0075,-0.0052,-0.0006,-24.6014,3.6026,-40.6460,
3.2450,0.2046,-0.0295,1.0111,0.0322,0.0368,-0.0079,-0.0075,-0.0052,-0.0006,-24.6014,3.6026,-40.6460,
3.2450,0.2046,-0.0295,1.0111,0.0322,0.0368,-0.0079,-0.0099,0.0009,-0.0006,-24.6014,3.6026,-40.6460,
3.2490,0.2046,-0.0295,1.0111,-0.0660,0.0096,0.0569,-0.0099,0.0009,-0.0006,-24.6014,3.6026,-40.6460,
3.2500,0.2021,-0.0299,1.0091,-0.0660,0.0096,0.0569,-0.0099,0.0009,-0.0006,-24.6014,3.6026,-40.6460,
3.2620,0.2021,-0.0299,1.0091,-0.0660,0.0096,0.0569,-0.0099,0.0009,-0.0006,-24.5779,3.6157,-40.6280,
3.3080,0.2021,-0.0299,1.0091,-0.0660,0.0096,0.0569,-0.0084,0.0134,-0.0000,-24.5779,3.6157,-40.6280,
3.3090,0.1987,-0.0314,1.0097,-0.0660,0.0096,0.0569,-0.0084,0.0134,-0.0000,-24.5779,3.6157,-40.6280,
3.3090,0.1987,-0.0314,1.0097,0.0257,0.0180,-0.0133,-0.0084,0.0134,-0.0000,-24.5779,3.6157,-40.6280,
3.3100,0.1974,-0.0295,1.0090,0.0257,0.0180,-0.0133,-0.0084,0.0134,-0.0000,-24.5779,3.6157,-40.6280,
3.3100,0.1971,-0.0285,1.0115,0.0257,0.0180,-0.0133,-0.0084,0.0134,-0.0000,-24.5779,3.6157,-40.6280,
3.3110,0.1971,-0.0285,1.0115,0.0257,0.0180,-0.0133,-0.0048,0.0110,0.0003,-24.5779,3.6157,-40.6280,
3.3440,0.1967,-0.0278,1.0118,0.0257,0.0180,-0.0133,-0.0048,0.0110,0.0003,-24.5779,3.6157,-40.6280,
3.3450,0.1967,-0.0278,1.0118,0.0257,0.0180,-0.0133,-0.0048,0.0110,0.0003,-24.5469,3.6473,-40.6597,
3.3740,0.1967,-0.0278,1.0118,0.0257,0.0180,-0.0133,-0.0035,0.0082,0.0012,-24.5469,3.6473,-40.6597,
3.3760,0.1968,-0.0290,1.0148,0.0257,0.0180,-0.0133,-0.0035,0.0082,0.0012,-24.5469,3.6473,-40.6597,
3.3760,0.1965,-0.0311,1.0158,0.0257,0.0180,-0.0133,-0.0035,0.0082,0.0012,-24.5469,3.6473,-40.6597,
3.3860,0.1969,-0.0304,1.0147,0.0257,0.0180,-0.0133,-0.0035,0.0082,0.0012,-24.5469,3.6473,-40.6597,
3.3870,0.1969,-0.0304,1.0147,-0.0114,0.0189,-0.0154,-0.0035,0.0082,0.0012,-24.5469,3.6473,-40.6597,
3.3870,0.1969,-0.0304,1.0147,-0.0114,0.0189,-0.0154,-0.0035,0.0034,0.0003,-24.5469,3.6473,-40.6597,
3.4030,0.1969,-0.0304,1.0147,-0.0114,0.0189,-0.0154,-0.0035,0.0034,0.0003,-24.5270,3.6580,-40.6906,
3.4420,0.1989,-0.0281,1.0097,-0.0114,0.0189,-0.0154,-0.0035,0.0034,0.0003,-24.5270,3.6580,-40.6906,
3.4430,0.1975,-0.0278,1.0111,-0.0114,0.0189,-0.0154,-0.0035,0.0034,0.0003,-24.5270,3.6580,-40.6906,
3.4440,0.1975,-0.0278,1.0111,-0.0114,0.0189,-0.0154,-0.0014,0.0021,0.0006,-24.5270,3.6580,-40.6906,
3.4450,0.1968,-0.0292,1.0108,-0.0114,0.0189,-0.0154,-0.0014,0.0021,0.0006,-24.5270,3.6580,-40.6906,
3.4450,0.1968,-0.0292,1.0108,-0.0157,0.0160,0.0225,-0.0014,0.0021,0.0006,-24.5270,3.6580,-40.6906,
3.4630,0.1968,-0.0292,1.0108,-0.0157,0.0160,0.0225,-0.0014,0.0021,0.0006,-24.4944,3.6734,-40.7066,
3.5080,0.1940,-0.0283,1.0097,-0.0157,0.0160,0.0225,-0.0014,0.0021,0.0006,-24.4944,3.6734,-40.7066,
3.5090,0.1940,-0.0283,1.0097,-0.0157,0.0160,0.0225,-0.0032,0.0101,0.0018,-24.4944,3.6734,-40.7066,
3.5100,0.1940,-0.0283,1.0097,-0.0157,0.0160,0.0225,-0.0054,0.0058,0.0021,-24.4944,3.6734,-40.7066,
3.5100,0.1936,-0.0293,1.0115,-0.0157,0.0160,0.0225,-0.0054,0.0058,0.0021,-24.4944,3.6734,-40.7066,
3.5110,0.1960,-0.0294,1.0133,-0.0157,0.0160,0.0225,-0.0054,0.0058,0.0021,-24.4944,3.6734,-40.7066,
3.5250,0.1960,-0.0294,1.0133,-0.0038,0.0299,-0.0175,-0.0054,0.0058,0.0021,-24.4944,3.6734,-40.7066,
3.5260,0.1974,-0.0296,1.0133,-0.0038,0.0299,-0.0175,-0.0054,0.0058,0.0021,-24.4944,3.6734,-40.7066,
3.5420,0.1974,-0.0296,1.0133,-0.0038,0.0299,-0.0175,-0.0017,0.0073,0.0033,-24.4944,3.6734,-40.7066,
3.5440,0.1974,-0.0296,1.0133,-0.0038,0.0299,-0.0175,-0.0017,0.0073,0.0033,-24.4506,3.6943,-40.7363,
3.5450,0.1968,-0.0299,1.0135,-0.0038,0.0299,-0.0175,-0.0017,0.0073,0.0033,-24.4506,3.6943,-40.7363,
3.5760,0.1970,-0.0293,1.0148,-0.0038,0.0299,-0.0175,-0.0017,0.0073,0.0033,-24.4506,3.6943,-40.7363,
3.5820,0.1964,-0.0306,1.0144,-0.0038,0.0299,-0.0175,-0.0017,0.0073,0.0033,-24.4506,3.6943,-40.7363,
3.5830,0.1964,-0.0306,1.0144,-0.0169,0.0205,0.0003,-0.0017,0.0073,0.0033,-24.4506,3.6943,-40.7363,
3.5830,0.1964,-0.0306,1.0144,-0.0169,0.0205,0.0003,-0.0045,0.0082,0.0036,-24.4506,3.6943,-40.7363,
3.6020,0.1953,-0.0315,1.0135,-0.0169,0.0205,0.0003,-0.0045,0.0082,0.0036,-24.4506,3.6943,-40.7363,
3.6040,0.1953,-0.0315,1.0135,-0.0169,0.0205,0.0003,-0.0045,0.0082,0.0036,-24.4136,3.6998,-40.7711,
3.6420,0.1953,-0.0315,1.0135,-0.0169,0.0205,0.0003,-0.0038,0.0018,0.0003,-24.4136,3.6998,-40.7711,
3.6430,0.1949,-0.0307,1.0117,-0.0169,0.0205,0.0003,-0.0038,0.0018,0.0003,-24.4136,3.6998,-40.7711,
3.6440,0.1946,-0.0296,1.0102,-0.0169,0.0205,0.0003,-0.0038,0.0018,0.0003,-24.4136,3.6998,-40.7711,
3.6590,0.1946,-0.0296,1.0102,-0.0169,0.0205,0.0003,-0.0032,0.0012,-0.0000,-24.4136,3.6998,-40.7711,
3.6600,0.1973,-0.0304,1.0114,-0.0169,0.0205,0.0003,-0.0032,0.0012,-0.0000,-24.4136,3.6998,-40.7711,
3.6610,0.1973,-0.0304,1.0114,-0.0037,0.0133,0.0163,-0.0032,0.0012,-0.0000,-24.4136,3.6998,-40.7711,
3.6610,0.1973,-0.0304,1.0114,-0.0037,0.0133,0.0163,-0.0032,0.0012,-0.0000,-24.3623,3.7268,-40.7906,
3.7090,0.1957,-0.0306,1.0115,-0.0037,0.0133,0.0163,-0.0032,0.0012,-0.0000,-24.3623,3.7268,-40.7906,
3.7110,0.1951,-0.0303,1.0115,-0.0037,0.0133,0.0163,-0.0032,0.0012,-0.0000,-24.3623,3.7268,-40.7906,
3.7120,0.1951,-0.0303,1.0115,-0.0037,0.0133,0.0163,-0.0017,0.0055,-0.0000,-24.3623,3.7268,-40.7906,
3.7180,0.1951,-0.0303,1.0115,-0.0070,0.0101,-0.0099,-0.0017,0.0055,-0.0000,-24.3623,3.7268,-40.7906,
3.7180,0.1957,-0.0289,1.0130,-0.0070,0.0101,-0.0099,-0.0017,0.0055,-0.0000,-24.3623,3.7268,-40.7906,
3.7410,0.1937,-0.0294,1.0139,-0.0070,0.0101,-0.0099,-0.0017,0.0055,-0.0000,-24.3623,3.7268,-40.7906,
3.7430,0.1937,-0.0294,1.0139,-0.0070,0.0101,-0.0099,-0.0017,0.0055,-0.0000,-24.3330,3.7325,-40.8310,
3.7440,0.1937,-0.0294,1.0139,-0.0070,0.0101,-0.0099,-0.0029,0.0073,0.0009,-24.3330,3.7325,-40.8310,
3.7770,0.1923,-0.0294,1.0144,-0.0070,0.0101,-0.0099,-0.0029,0.0073,0.0009,-24.3330,3.7325,-40.8310,
3.7960,0.1936,-0.0290,1.0151,-0.0070,0.0101,-0.0099,-0.0029,0.0073,0.0009,-24.3330,3.7325,-40.8310,
3.7980,0.1936,-0.0290,1.0151,-0.0073,0.0172,-0.0015,-0.0029,0.0073,0.0009,-24.3330,3.7325,-40.8310,
3.7990,0.1936,-0.0290,1.0151,-0.0073,0.0172,-0.0015,-0.0048,0.0040,0.0012,-24.3330,3.7325,-40.8310,
3.7990,0.1936,-0.0300,1.0129,-0.0073,0.0172,-0.0015,-0.0048,0.0040,0.0012,-24.3330,3.7325,-40.8310,
3.8030,0.1936,-0.0300,1.0129,-0.0073,0.0172,-0.0015,-0.0048,0.0040,0.0012,-24.2868,3.7567,-40.8532,
3.8430,0.1941,-0.0284,1.0134,-0.0073,0.0172,-0.0015,-0.0048,0.0040,0.0012,-24.2868,3.7567,-40.8532,
3.8440,0.1958,-0.0277,1.0104,-0.0073,0.0172,-0.0015,-0.0048,0.0040,0.0012,-24.2868,3.7567,-40.8532,
3.8450,0.1958,-0.0277,1.0104,-0.0073,0.0172,-0.0015,-0.0048,-0.0006,0.0006,-24.2868,3.7567,-40.8532,
3.8550,0.1976,-0.0301,1.0067,-0.0073,0.0172,-0.0015,-0.0048,-0.0006,0.0006,-24.2868,3.7567,-40.8532,
3.8560,0.1976,-0.0301,1.0067,-0.0073,0.0172,-0.0015,-0.0087,-0.0028,0.0015,-24.2868,3.7567,-40.8532,
3.8560,0.1976,-0.0301,1.0067,-0.0253,0.0232,0.0145,-0.0087,-0.0028,0.0015,-24.2868,3.7567,-40.8532,
3.8620,0.1976,-0.0301,1.0067,-0.0253,0.0232,0.0145,-0.0087,-0.0028,0.0015,-24.2816,3.7374,-40.8499,
3.9080,0.1976,-0.0301,1.0067,-0.0253,0.0232,0.0145,-0.0093,0.0079,-0.0003,-24.2816,3.7374,-40.8499,
3.9100,0.1968,-0.0334,1.0103,-0.0253,0.0232,0.0145,-0.0093,0.0079,-0.0003,-24.2816,3.7374,-40.8499,
3.9110,0.1947,-0.0306,1.0139,-0.0253,0.0232,0.0145,-0.0093,0.0079,-0.0003,-24.2816,3.7374,-40.8499,
3.9340,0.1947,-0.0306,1.0139,0.0044,0.0246,-0.0230,-0.0093,0.0079,-0.0003,-24.2816,3.7374,-40.8499,
3.9360,0.1947,-0.0306,1.0139,0.0044,0.0246,-0.0230,-0.0038,-0.0012,-0.0006,-24.2816,3.7374,-40.8499,
3.9370,0.1924,-0.0285,1.0245,0.0044,0.0246,-0.0230,-0.0038,-0.0012,-0.0006,-24.2816,3.7374,-40.8499,
3.9370,0.1916,-0.0306,1.0222,0.0044,0.0246,-0.0230,-0.0038,-0.0012,-0.0006,-24.2816,3.7374,-40.8499,
3.9420,0.1916,-0.0306,1.0222,0.0044,0.0246,-0.0230,-0.0038,-0.0012,-0.0006,-24.2727,3.7446,-40.8416,
3.9750,0.1916,-0.0306,1.0222,0.0044,0.0246,-0.0230,0.0050,-0.0162,-0.0010,-24.2727,3.7446,-40.8416,
3.9760,0.1931,-0.0338,1.0123,0.0044,0.0246,-0.0230,0.0050,-0.0162,-0.0010,-24.2727,3.7446,-40.8416,
3.9770,0.1945,-0.0295,0.9820,0.0044,0.0246,-0.0230,0.0050,-0.0162,-0.0010,-24.2727,3.7446,-40.8416,
3.9930,0.1945,-0.0295,0.9820,-0.0237,0.0156,0.0586,0.0050,-0.0162,-0.0010,-24.2727,3.7446,-40.8416,
3.9950,0.1993,-0.0288,1.0296,-0.0237,0.0156,0.0586,0.0050,-0.0162,-0.0010,-24.2727,3.7446,-40.8416,
4.0020,0.1993,-0.0288,1.0296,-0.0237,0.0156,0.0586,0.0050,-0.0162,-0.0010,-24.2565,3.7383,-40.8553,
4.0430,0.1985,-0.0255,1.0200,-0.0237,0.0156,0.0586,0.0050,-0.0162,-0.0010,-24.2565,3.7383,-40.8553,
4.0440,0.1960,-0.0296,0.9966,-0.0237,0.0156,0.0586,0.0050,-0.0162,-0.0010,-24.2565,3.7383,-40.8553,
4.0450,0.1960,-0.0296,0.9966,-0.0237,0.0156,0.0586,-0.0075,0.0049,0.0036,-24.2565,3.7383,-40.8553,
4.0610,0.1960,-0.0296,0.9966,-0.0237,0.0156,0.0586,-0.0005,0.0205,0.0033,-24.2565,3.7383,-40.8553,
4.0630,0.1913,-0.0281,1.0106,-0.0237,0.0156,0.0586,-0.0005,0.0205,0.0033,-24.2565,3.7383,-40.8553,
4.0630,0.1913,-0.0281,1.0106,-0.0237,0.0156,0.0586,-0.0005,0.0205,0.0033,-24.2604,3.7305,-40.8682,
4.0690,0.1913,-0.0281,1.0106,0.0123,0.0191,-0.0182,-0.0005,0.0205,0.0033,-24.2604,3.7305,-40.8682,
4.0700,0.1896,-0.0315,1.0236,0.0123,0.0191,-0.0182,-0.0005,0.0205,0.0033,-24.2604,3.7305,-40.8682,
4.0970,0.1858,-0.0326,1.0170,0.0123,0.0191,-0.0182,-0.0005,0.0205,0.0033,-24.2604,3.7305,-40.8682,
4.0980,0.1858,-0.0326,1.0170,0.0123,0.0191,-0.0182,-0.0029,0.0079,0.0024,-24.2604,3.7305,-40.8682,
4.1080,0.1866,-0.0298,1.0122,0.0123,0.0191,-0.0182,-0.0029,0.0079,0.0024,-24.2604,3.7305,-40.8682,
4.1270,0.1956,-0.0299,1.0126,0.0123,0.0191,-0.0182,-0.0029,0.0079,0.0024,-24.2604,3.7305,-40.8682,
4.1290,0.1956,-0.0299,1.0126,0.0123,0.0191,-0.0182,-0.0066,-0.0159,-0.0016,-24.2604,3.7305,-40.8682,
4.1290,0.1956,-0.0299,1.0126,-0.0189,0.0251,-0.0229,-0.0066,-0.0159,-0.0016,-24.2604,3.7305,-40.8682,
4.1420,0.1956,-0.0299,1.0126,-0.0189,0.0251,-0.0229,-0.0066,-0.0159,-0.0016,-24.2070,3.7349,-40.8713,
4.1760,0.2008,-0.0305,1.0135,-0.0189,0.0251,-0.0229,-0.0066,-0.0159,-0.0016,-24.2070,3.7349,-40.8713,
4.1780,0.2008,-0.0305,1.0135,-0.0189,0.0251,-0.0229,-0.0081,-0.0018,-0.0010,-24.2070,3.7349,-40.8713,
4.1780,0.1990,-0.0325,1.0139,-0.0189,0.0251,-0.0229,-0.0081,-0.0018,-0.0010,-24.2070,3.7349,-40.8713,
4.2020,0.1953,-0.0325,1.0134,-0.0189,0.0251,-0.0229,-0.0081,-0.0018,-0.0010,-24.2070,3.7349,-40.8713,
4.2030,0.1953,-0.0325,1.0134,-0.0189,0.0251,-0.0229,-0.0081,-0.0018,-0.0010,-24.2178,3.7345,-40.8493,
4.2050,0.1929,-0.0314,1.0128,-0.0189,0.0251,-0.0229,-0.0081,-0.0018,-0.0010,-24.2178,3.7345,-40.8493,
4.2050,0.1929,-0.0314,1.0128,-0.0354,0.0136,0.0104,-0.0081,-0.0018,-0.0010,-24.2178,3.7345,-40.8493,
4.2060,0.1929,-0.0314,1.0128,-0.0354,0.0136,0.0104,-0.0026,0.0055,-0.0006,-24.2178,3.7345,-40.8493,
4.2420,0.1930,-0.0294,1.0114,-0.0354,0.0136,0.0104,-0.0026,0.0055,-0.0006,-24.2178,3.7345,-40.8493,
4.2620,0.1930,-0.0294,1.0114,-0.0354,0.0136,0.0104,-0.0026,0.0055,-0.0006,-24.2306,3.7430,-40.8350,
4.2630,0.1930,-0.0294,1.0114,-0.0354,0.0136,0.0104,-0.0017,0.0009,0.0006,-24.2306,3.7430,-40.8350,
4.2640,0.1936,-0.0279,1.0112,-0.0354,0.0136,0.0104,-0.0017,0.0009,0.0006,-24.2306,3.7430,-40.8350,
4.2640,0.1927,-0.0282,1.0120,-0.0354,0.0136,0.0104,-0.0017,0.0009,0.0006,-24.2306,3.7430,-40.8350,
4.2660,0.1927,-0.0282,1.0120,0.0168,0.0016,0.0068,-0.0017,0.0009,0.0006,-24.2306,3.7430,-40.8350,
4.3100,0.1931,-0.0294,1.0161,0.0168,0.0016,0.0068,-0.0017,0.0009,0.0006,-24.2306,3.7430,-40.8350,
4.3120,0.1931,-0.0294,1.0161,0.0168,0.0016,0.0068,-0.0032,0.0006,-0.0006,-24.2306,3.7430,-40.8350,
4.3130,0.1925,-0.0316,1.0157,0.0168,0.0016,0.0068,-0.0032,0.0006,-0.0006,-24.2306,3.7430,-40.8350,
4.3420,0.1946,-0.0293,1.0135,0.0168,0.0016,0.0068,-0.0032,0.0006,-0.0006,-24.2306,3.7430,-40.8350,
4.3430,0.1946,-0.0293,1.0135,0.0168,0.0016,0.0068,-0.0023,-0.0055,-0.0010,-24.2306,3.7430,-40.8350,
4.3430,0.1946,-0.0293,1.0135,0.0168,0.0016,0.0068,-0.0023,-0.0055,-0.0010,-24.2343,3.7311,-40.8401,
4.3440,0.1946,-0.0278,1.0119,0.0168,0.0016,0.0068,-0.0023,-0.0055,-0.0010,-24.2343,3.7311,-40.8401,
4.3450,0.1946,-0.0278,1.0119,-0.0157,0.0324,-0.0057,-0.0023,-0.0055,-0.0010,-24.2343,3.7311,-40.8401,
4.3760,0.1932,-0.0306,1.0139,-0.0157,0.0324,-0.0057,-0.0023,-0.0055,-0.0010,-24.2343,3.7311,-40.8401,
4.3780,0.1932,-0.0306,1.0139,-0.0157,0.0324,-0.0057,-0.0035,0.0012,0.0006,-24.2343,3.7311,-40.8401,
4.4010,0.1932,-0.0306,1.0139,-0.0157,0.0324,-0.0057,-0.0038,0.0021,0.0003,-24.2343,3.7311,-40.8401,
4.4020,0.1910,-0.0304,1.0107,-0.0157,0.0324,-0.0057,-0.0038,0.0021,0.0003,-24.2343,3.7311,-40.8401,
4.4030,0.1907,-0.0294,1.0134,-0.0157,0.0324,-0.0057,-0.0038,0.0021,0.0003,-24.2343,3.7311,-40.8401,
4.4030,0.1907,-0.0294,1.0134,-0.0078,0.0227,0.0127,-0.0038,0.0021,0.0003,-24.2343,3.7311,-40.8401,
4.4040,0.1907,-0.0294,1.0134,-0.0078,0.0227,0.0127,-0.0038,0.0021,0.0003,-24.2474,3.7344,-40.8556,
4.4430,0.1923,-0.0309,1.0135,-0.0078,0.0227,0.0127,-0.0038,0.0021,0.0003,-24.2474,3.7344,-40.8556,
4.4440,0.1923,-0.0309,1.0135,-0.0078,0.0227,0.0127,-0.0023,0.0003,0.0012,-24.2474,3.7344,-40.8556,
4.4440,0.1930,-0.0299,1.0169,-0.0078,0.0227,0.0127,-0.0023,0.0003,0.0012,-24.2474,3.7344,-40.8556,
4.4620,0.1942,-0.0304,1.0140,-0.0078,0.0227,0.0127,-0.0023,0.0003,0.0012,-24.2474,3.7344,-40.8556,
4.4630,0.1942,-0.0304,1.0140,-0.0078,0.0227,0.0127,-0.0023,0.0003,0.0012,-24.2764,3.7301,-40.8359,
4.4780,0.1942,-0.0304,1.0140,-0.0239,0.0155,-0.0006,-0.0023,0.0003,0.0012,-24.2764,3.7301,-40.8359,
4.4790,0.1945,-0.0294,1.0144,-0.0239,0.0155,-0.0006,-0.0023,0.0003,0.0012,-24.2764,3.7301,-40.8359,
4.4800,0.1945,-0.0294,1.0144,-0.0239,0.0155,-0.0006,-0.0005,-0.0003,0.0006,-24.2764,3.7301,-40.8359,
4.5080,0.1943,-0.0299,1.0152,-0.0239,0.0155,-0.0006,-0.0005,-0.0003,0.0006,-24.2764,3.7301,-40.8359,
4.5380,0.1943,-0.0299,1.0152,-0.0062,0.0170,0.0177,-0.0005,-0.0003,0.0006,-24.2764,3.7301,-40.8359,
4.5410,0.1943,-0.0299,1.0152,-0.0062,0.0170,0.0177,-0.0035,-0.0003,-0.0000,-24.2764,3.7301,-40.8359,
4.5410,0.1940,-0.0316,1.0129,-0.0062,0.0170,0.0177,-0.0035,-0.0003,-0.0000,-24.2764,3.7301,-40.8359,
4.5410,0.1926,-0.0306,1.0123,-0.0062,0.0170,0.0177,-0.0035,-0.0003,-0.0000,-24.2764,3.7301,-40.8359,
4.5420,0.1926,-0.0306,1.0123,-0.0062,0.0170,0.0177,-0.0035,-0.0003,-0.0000,-24.3088,3.7330,-40.8251,
4.5760,0.1926,-0.0306,1.0115,-0.0062,0.0170,0.0177,-0.0035,-0.0003,-0.0000,-24.3088,3.7330,-40.8251,
4.5770,0.1926,-0.0306,1.0115,-0.0062,0.0170,0.0177,-0.0045,-0.0034,-0.0010,-24.3088,3.7330,-40.8251,
4.5980,0.1945,-0.0301,1.0129,-0.0062,0.0170,0.0177,-0.0045,-0.0034,-0.0010,-24.3088,3.7330,-40.8251,
4.5990,0.1945,-0.0301,1.0129,-0.0062,0.0170,0.0177,-0.0026,-0.0009,-0.0000,-24.3088,3.7330,-40.8251,
4.5990,0.1943,-0.0299,1.0126,-0.0062,0.0170,0.0177,-0.0026,-0.0009,-0.0000,-24.3088,3.7330,-40.8251,
4.6010,0.1943,-0.0299,1.0126,-0.0062,0.0170,0.0177,-0.0026,-0.0009,-0.0000,-24.3304,3.7386,-40.8369,
4.6150,0.1943,-0.0299,1.0126,-0.0082,0.0122,0.0016,-0.0026,-0.0009,-0.0000,-24.3304,3.7386,-40.8369,
4.6160,0.1948,-0.0294,1.0129,-0.0082,0.0122,0.0016,-0.0026,-0.0009,-0.0000,-24.3304,3.7386,-40.8369,
4.6430,0.1936,-0.0285,1.0129,-0.0082,0.0122,0.0016,-0.0026,-0.0009,-0.0000,-24.3304,3.7386,-40.8369,
4.6450,0.1936,-0.0285,1.0129,-0.0082,0.0122,0.0016,-0.0029,0.0006,-0.0010,-24.3304,3.7386,-40.8369,
4.6620,0.1936,-0.0285,1.0129,-0.0082,0.0122,0.0016,-0.0029,0.0006,-0.0010,-24.3845,3.7423,-40.8511,
4.6630,0.1914,-0.0290,1.0140,-0.0082,0.0122,0.0016,-0.0029,0.0006,-0.0010,-24.3845,3.7423,-40.8511,
4.6730,0.1914,-0.0290,1.0140,0.0023,0.0183,-0.0038,-0.0029,0.0006,-0.0010,-24.3845,3.7423,-40.8511,
4.6740,0.1914,-0.0290,1.0140,0.0023,0.0183,-0.0038,-0.0041,0.0015,-0.0006,-24.3845,3.7423,-40.8511,
4.6750,0.1918,-0.0305,1.0142,0.0023,0.0183,-0.0038,-0.0041,0.0015,-0.0006,-24.3845,3.7423,-40.8511,
4.7090,0.1907,-0.0305,1.0144,0.0023,0.0183,-0.0038,-0.0041,0.0015,-0.0006,-24.3845,3.7423,-40.8511,
4.7420,0.1914,-0.0305,1.0139,0.0023,0.0183,-0.0038,-0.0041,0.0015,-0.0006,-24.3845,3.7423,-40.8511,
4.7430,0.1926,-0.0301,1.0140,0.0023,0.0183,-0.0038,-0.0041,0.0015,-0.0006,-24.3845,3.7423,-40.8511,
4.7440,0.1926,-0.0301,1.0140,0.0023,0.0183,-0.0038,-0.0041,-0.0006,0.0003,-24.3845,3.7423,-40.8511,
4.7450,0.1926,-0.0301,1.0140,0.0023,0.0183,-0.0038,-0.0041,-0.0006,0.0003,-24.4188,3.7287,-40.8669,
4.7510,0.1934,-0.0289,1.0120,0.0023,0.0183,-0.0038,-0.0041,-0.0006,0.0003,-24.4188,3.7287,-40.8669,
4.7520,0.1934,-0.0289,1.0120,0.0023,0.0183,-0.0038,-0.0051,-0.0040,0.0003,-24.4188,3.7287,-40.8669,
4.7530,0.1934,-0.0289,1.0120,-0.0194,0.0234,0.0071,-0.0051,-0.0040,0.0003,-24.4188,3.7287,-40.8669,
4.7750,0.1945,-0.0299,1.0084,-0.0194,0.0234,0.0071,-0.0051,-0.0040,0.0003,-24.4188,3.7287,-40.8669,
4.8020,0.1956,-0.0334,1.0117,-0.0194,0.0234,0.0071,-0.0051,-0.0040,0.0003,-24.4188,3.7287,-40.8669,
4.8040,0.1956,-0.0334,1.0117,-0.0194,0.0234,0.0071,-0.0087,0.0012,-0.0016,-24.4188,3.7287,-40.8669,
4.8050,0.1956,-0.0334,1.0117,-0.0194,0.0234,0.0071,-0.0087,0.0012,-0.0016,-24.4321,3.7116,-40.8764,
4.8100,0.1941,-0.0305,1.0152,-0.0194,0.0234,0.0071,-0.0087,0.0012,-0.0016,-24.4321,3.7116,-40.8764,
4.8110,0.1941,-0.0305,1.0152,-0.0156,0.0223,0.0037,-0.0087,0.0012,-0.0016,-24.4321,3.7116,-40.8764,
4.8430,0.1912,-0.0276,1.0223,-0.0156,0.0223,0.0037,-0.0087,0.0012,-0.0016,-24.4321,3.7116,-40.8764,
4.8450,0.1912,-0.0276,1.0223,-0.0156,0.0223,0.0037,-0.0084,0.0037,-0.0013,-24.4321,3.7116,-40.8764,
4.8620,0.1912,-0.0276,1.0223,-0.0156,0.0223,0.0037,-0.0084,0.0037,-0.0013,-24.4467,3.7101,-40.8785,
4.8640,0.1913,-0.0300,1.0221,-0.0156,0.0223,0.0037,-0.0084,0.0037,-0.0013,-24.4467,3.7101,-40.8785,
4.8890,0.1921,-0.0323,1.0122,-0.0156,0.0223,0.0037,-0.0084,0.0037,-0.0013,-24.4467,3.7101,-40.8785,
4.8910,0.1921,-0.0323,1.0122,-0.0156,0.0223,0.0037,0.0056,-0.0110,-0.0028,-24.4467,3.7101,-40.8785,
4.8930,0.1931,-0.0310,0.9832,-0.0156,0.0223,0.0037,0.0056,-0.0110,-0.0028,-24.4467,3.7101,-40.8785,
4.8940,0.1931,-0.0310,0.9832,-0.0034,0.0117,-0.0010,0.0056,-0.0110,-0.0028,-24.4467,3.7101,-40.8785,
4.9080,0.1974,-0.0276,1.0257,-0.0034,0.0117,-0.0010,0.0056,-0.0110,-0.0028,-24.4467,3.7101,-40.8785,
4.9100,0.1974,-0.0276,1.0257,-0.0034,0.0117,-0.0010,-0.0115,-0.0058,0.0018,-24.4467,3.7101,-40.8785,
4.9420,0.1982,-0.0262,1.0244,-0.0034,0.0117,-0.0010,-0.0115,-0.0058,0.0018,-24.4467,3.7101,-40.8785,
4.9440,0.1982,-0.0262,1.0244,-0.0034,0.0117,-0.0010,-0.0115,-0.0058,0.0018,-24.4524,3.7040,-40.8838,
4.9480,0.1960,-0.0294,0.9953,-0.0034,0.0117,-0.0010,-0.0115,-0.0058,0.0018,-24.4524,3.7040,-40.8838,
4.9490,0.1960,-0.0294,0.9953,-0.0155,0.0140,-0.0390,-0.0115,-0.0058,0.0018,-24.4524,3.7040,-40.8838,
4.9500,0.1960,-0.0294,0.9953,-0.0155,0.0140,-0.0390,0.0047,0.0046,0.0024,-24.4524,3.7040,-40.8838,
4.9750,0.1921,-0.0288,1.0104,-0.0155,0.0140,-0.0390,0.0047,0.0046,0.0024,-24.4524,3.7040,-40.8838,
5.0050,0.1921,-0.0288,1.0104,-0.0155,0.0140,-0.0390,-0.0054,0.0223,0.0049,-24.4524,3.7040,-40.8838,
5.0070,0.1896,-0.0332,1.0230,-0.0155,0.0140,-0.0390,-0.0054,0.0223,0.0049,-24.4524,3.7040,-40.8838,
5.0070,0.1896,-0.0332,1.0230,-0.0155,0.0140,-0.0390,-0.0054,0.0223,0.0049,-24.4069,3.7085,-40.8944,
5.0260,0.1848,-0.0321,1.0168,-0.0155,0.0140,-0.0390,-0.0054,0.0223,0.0049,-24.4069,3.7085,-40.8944,
5.0280,0.1848,-0.0321,1.0168,-0.0155,0.0140,-0.0390,-0.0017,-0.0107,-0.0025,-24.4069,3.7085,-40.8944,
5.0280,0.1874,-0.0293,1.0123,-0.0155,0.0140,-0.0390,-0.0017,-0.0107,-0.0025,-24.4069,3.7085,-40.8944,
5.0290,0.1874,-0.0293,1.0123,0.0267,0.0389,0.0067,-0.0017,-0.0107,-0.0025,-24.4069,3.7085,-40.8944,
5.0630,0.1948,-0.0293,1.0123,0.0267,0.0389,0.0067,-0.0017,-0.0107,-0.0025,-24.4069,3.7085,-40.8944,
5.0640,0.1948,-0.0293,1.0123,0.0267,0.0389,0.0067,-0.0017,-0.0107,-0.0025,-24.3751,3.7083,-40.9112,
5.0840,0.1979,-0.0314,1.0123,0.0267,0.0389,0.0067,-0.0017,-0.0107,-0.0025,-24.3751,3.7083,-40.9112,
5.0860,0.1979,-0.0314,1.0123,0.0267,0.0389,0.0067,-0.0075,-0.0107,-0.0034,-24.3751,3.7083,-40.9112,
5.0860,0.1969,-0.0326,1.0102,0.0267,0.0389,0.0067,-0.0075,-0.0107,-0.0034,-24.3751,3.7083,-40.9112,
5.0860,0.1969,-0.0326,1.0102,-0.0553,0.0097,0.0429,-0.0075,-0.0107,-0.0034,-24.3751,3.7083,-40.9112,
5.1080,0.1969,-0.0326,1.0102,-0.0553,0.0097,0.0429,-0.0063,0.0015,-0.0022,-24.3751,3.7083,-40.9112,
5.1090,0.1946,-0.0322,1.0111,-0.0553,0.0097,0.0429,-0.0063,0.0015,-0.0022,-24.3751,3.7083,-40.9112,
5.1440,0.1946,-0.0322,1.0111,-0.0553,0.0097,0.0429,-0.0017,0.0021,-0.0013,-24.3751,3.7083,-40.9112,
5.1450,0.1925,-0.0318,1.0117,-0.0553,0.0097,0.0429,-0.0017,0.0021,-0.0013,-24.3751,3.7083,-40.9112,
5.1460,0.1916,-0.0311,1.0111,-0.0553,0.0097,0.0429,-0.0017,0.0021,-0.0013,-24.3751,3.7083,-40.9112,
5.1460,0.1916,-0.0311,1.0111,-0.0553,0.0097,0.0429,-0.0017,0.0021,-0.0013,-24.3314,3.7089,-40.8821,
5.1630,0.1916,-0.0311,1.0111,0.0261,0.0099,-0.0149,-0.0017,0.0021,-0.0013,-24.3314,3.7089,-40.8821,
5.1640,0.1924,-0.0285,1.0108,0.0261,0.0099,-0.0149,-0.0017,0.0021,-0.0013,-24.3314,3.7089,-40.8821,
5.2020,0.1924,-0.0285,1.0108,0.0261,0.0099,-0.0149,-0.0008,0.0003,-0.0010,-24.3314,3.7089,-40.8821,
5.2030,0.1924,-0.0285,1.0108,0.0261,0.0099,-0.0149,-0.0008,0.0003,-0.0010,-24.3096,3.7056,-40.8667,
5.2040,0.1914,-0.0278,1.0134,0.0261,0.0099,-0.0149,-0.0008,0.0003,-0.0010,-24.3096,3.7056,-40.8667,
5.2040,0.1916,-0.0289,1.0134,0.0261,0.0099,-0.0149,-0.0008,0.0003,-0.0010,-24.3096,3.7056,-40.8667,
5.2210,0.1916,-0.0289,1.0134,-0.0129,0.0116,-0.0146,-0.0008,0.0003,-0.0010,-24.3096,3.7056,-40.8667,
5.2220,0.1915,-0.0310,1.0146,-0.0129,0.0116,-0.0146,-0.0008,0.0003,-0.0010,-24.3096,3.7056,-40.8667,
5.2240,0.1915,-0.0310,1.0146,-0.0129,0.0116,-0.0146,-0.0008,-0.0012,-0.0010,-24.3096,3.7056,-40.8667,
5.2410,0.1934,-0.0273,1.0141,-0.0129,0.0116,-0.0146,-0.0008,-0.0012,-0.0010,-24.3096,3.7056,-40.8667,
5.2610,0.1942,-0.0267,1.0062,-0.0129,0.0116,-0.0146,-0.0008,-0.0012,-0.0010,-24.3096,3.7056,-40.8667,
5.2620,0.1942,-0.0267,1.0062,-0.0129,0.0116,-0.0146,-0.0002,-0.0067,-0.0010,-24.3096,3.7056,-40.8667,
5.2620,0.1942,-0.0267,1.0062,-0.0129,0.0116,-0.0146,-0.0002,-0.0067,-0.0010,-24.2730,3.7186,-40.8627,
5.3000,0.1927,-0.0301,1.0131,-0.0129,0.0116,-0.0146,-0.0002,-0.0067,-0.0010,-24.2730,3.7186,-40.8627,
5.3010,0.1927,-0.0301,1.0131,-0.0129,0.0116,-0.0146,-0.0038,0.0027,-0.0000,-24.2730,3.7186,-40.8627,
5.3010,0.1925,-0.0300,1.0111,-0.0129,0.0116,-0.0146,-0.0038,0.0027,-0.0000,-24.2730,3.7186,-40.8627,
5.3020,0.1925,-0.0300,1.0111,-0.0184,0.0267,0.0112,-0.0038,0.0027,-0.0000,-24.2730,3.7186,-40.8627,
5.3420,0.1925,-0.0300,1.0111,-0.0184,0.0267,0.0112,-0.0045,-0.0018,-0.0000,-24.2730,3.7186,-40.8627,
5.3440,0.1925,-0.0300,1.0111,-0.0184,0.0267,0.0112,-0.0045,-0.0018,-0.0000,-24.2525,3.7266,-40.8553,
5.3450,0.1905,-0.0300,1.0119,-0.0184,0.0267,0.0112,-0.0045,-0.0018,-0.0000,-24.2525,3.7266,-40.8553,
5.3450,0.1912,-0.0305,1.0135,-0.0184,0.0267,0.0112,-0.0045,-0.0018,-0.0000,-24.2525,3.7266,-40.8553,
5.3560,0.1912,-0.0305,1.0135,-0.0036,0.0302,-0.0201,-0.0045,-0.0018,-0.0000,-24.2525,3.7266,-40.8553,
5.3580,0.1916,-0.0300,1.0147,-0.0036,0.0302,-0.0201,-0.0045,-0.0018,-0.0000,-24.2525,3.7266,-40.8553,
5.4030,0.1936,-0.0293,1.0125,-0.0036,0.0302,-0.0201,-0.0045,-0.0018,-0.0000,-24.2525,3.7266,-40.8553,
5.4050,0.1936,-0.0293,1.0125,-0.0036,0.0302,-0.0201,-0.0045,-0.0018,-0.0000,-24.2612,3.7213,-40.8603,
5.4060,0.1936,-0.0293,1.0125,-0.0036,0.0302,-0.0201,-0.0011,-0.0037,0.0006,-24.2612,3.7213,-40.8603,
5.4060,0.1954,-0.0304,1.0108,-0.0036,0.0302,-0.0201,-0.0011,-0.0037,0.0006,-24.2612,3.7213,-40.8603,
5.4360,0.1954,-0.0304,1.0108,-0.0204,0.0157,0.0077,-0.0011,-0.0037,0.0006,-24.2612,3.7213,-40.8603,
5.4370,0.1956,-0.0309,1.0137,-0.0204,0.0157,0.0077,-0.0011,-0.0037,0.0006,-24.2612,3.7213,-40.8603,
5.4380,0.1936,-0.0311,1.0120,-0.0204,0.0157,0.0077,-0.0011,-0.0037,0.0006,-24.2612,3.7213,-40.8603,
5.4380,0.1936,-0.0311,1.0120,-0.0204,0.0157,0.0077,-0.0023,-0.0015,0.0009,-24.2612,3.7213,-40.8603,
5.4630,0.1920,-0.0304,1.0114,-0.0204,0.0157,0.0077,-0.0023,-0.0015,0.0009,-24.2612,3.7213,-40.8603,
5.4640,0.1920,-0.0304,1.0114,-0.0204,0.0157,0.0077,-0.0023,-0.0015,0.0009,-24.1916,3.7081,-40.8553,
5.4650,0.1920,-0.0304,1.0114,-0.0204,0.0157,0.0077,-0.0023,-0.0028,-0.0006,-24.1916,3.7081,-40.8553,
5.4950,0.1920,-0.0304,1.0114,0.0078,0.0098,-0.0043,-0.0023,-0.0028,-0.0006,-24.1916,3.7081,-40.8553,
5.4960,0.1920,-0.0304,1.0114,0.0078,0.0098,-0.0043,-0.0020,-0.0040,-0.0013,-24.1916,3.7081,-40.8553,
5.4970,0.1934,-0.0296,1.0113,0.0078,0.0098,-0.0043,-0.0020,-0.0040,-0.0013,-24.1916,3.7081,-40.8553,
5.4970,0.1940,-0.0301,1.0109,0.0078,0.0098,-0.0043,-0.0020,-0.0040,-0.0013,-24.1916,3.7081,-40.8553,
5.5420,0.1937,-0.0299,1.0108,0.0078,0.0098,-0.0043,-0.0020,-0.0040,-0.0013,-24.1916,3.7081,-40.8553,
5.5440,0.1937,-0.0299,1.0108,0.0078,0.0098,-0.0043,-0.0020,-0.0012,-0.0006,-24.1916,3.7081,-40.8553,
5.5440,0.1931,-0.0290,1.0118,0.0078,0.0098,-0.0043,-0.0020,-0.0012,-0.0006,-24.1916,3.7081,-40.8553,
5.5450,0.1931,-0.0290,1.0118,0.0078,0.0098,-0.0043,-0.0020,-0.0012,-0.0006,-24.1672,3.8040,-40.6965,
5.5710,0.1931,-0.0290,1.0118,0.0078,0.0098,-0.0043,-0.0041,0.0006,-0.0006,-24.1672,3.8040,-40.6965,
5.5730,0.1934,-0.0287,1.0120,0.0078,0.0098,-0.0043,-0.0041,0.0006,-0.0006,-24.1672,3.8040,-40.6965,
5.5740,0.1924,-0.0292,1.0130,0.0078,0.0098,-0.0043,-0.0041,0.0006,-0.0006,-24.1672,3.8040,-40.6965,
5.5750,0.1924,-0.0292,1.0130,-0.0061,0.0144,-0.0123,-0.0041,0.0006,-0.0006,-24.1672,3.8040,-40.6965,
5.5970,0.1920,-0.0287,1.0136,-0.0061,0.0144,-0.0123,-0.0041,0.0006,-0.0006,-24.1672,3.8040,-40.6965,
5.6020,0.1920,-0.0287,1.0136,-0.0061,0.0144,-0.0123,-0.0041,0.0006,-0.0006,-24.1592,3.8047,-40.6862,
5.6310,0.1920,-0.0287,1.0136,-0.0077,0.0262,-0.0018,-0.0041,0.0006,-0.0006,-24.1592,3.8047,-40.6862,
5.6330,0.1920,-0.0287,1.0136,-0.0077,0.0262,-0.0018,-0.0045,-0.0000,-0.0010,-24.1592,3.8047,-40.6862,
5.6340,0.1913,-0.0298,1.0134,-0.0077,0.0262,-0.0018,-0.0045,-0.0000,-0.0010,-24.1592,3.8047,-40.6862,
5.6340,0.1913,-0.0298,1.0131,-0.0077,0.0262,-0.0018,-0.0045,-0.0000,-0.0010,-24.1592,3.8047,-40.6862,
5.6620,0.1930,-0.0296,1.0118,-0.0077,0.0262,-0.0018,-0.0045,-0.0000,-0.0010,-24.1592,3.8047,-40.6862,
5.6640,0.1930,-0.0296,1.0118,-0.0077,0.0262,-0.0018,-0.0045,-0.0000,-0.0010,-24.1602,3.7859,-40.7130,
5.6650,0.1930,-0.0296,1.0118,-0.0077,0.0262,-0.0018,-0.0038,-0.0040,0.0003,-24.1602,3.7859,-40.7130,
5.7100,0.1942,-0.0283,1.0125,-0.0077,0.0262,-0.0018,-0.0038,-0.0040,0.0003,-24.1602,3.7859,-40.7130,
5.7120,0.1942,-0.0283,1.0125,-0.0077,0.0262,-0.0018,-0.0066,-0.0055,0.0003,-24.1602,3.7859,-40.7130,
5.7130,0.1952,-0.0307,1.0062,-0.0077,0.0262,-0.0018,-0.0066,-0.0055,0.0003,-24.1602,3.7859,-40.7130,
5.7130,0.1960,-0.0331,1.0100,-0.0077,0.0262,-0.0018,-0.0066,-0.0055,0.0003,-24.1602,3.7859,-40.7130,
5.7140,0.1960,-0.0331,1.0100,-0.0196,0.0232,0.0080,-0.0066,-0.0055,0.0003,-24.1602,3.7859,-40.7130,
5.7430,0.1960,-0.0331,1.0100,-0.0196,0.0232,0.0080,-0.0066,-0.0055,0.0003,-24.1439,3.7797,-40.7329,
5.7460,0.1935,-0.0312,1.0130,-0.0196,0.0232,0.0080,-0.0066,-0.0055,0.0003,-24.1439,3.7797,-40.7329,
5.7460,0.1935,-0.0312,1.0130,-0.0196,0.0232,0.0080,-0.0103,0.0037,-0.0010,-24.1439,3.7797,-40.7329,
5.7680,0.1935,-0.0312,1.0130,-0.0196,0.0232,0.0080,-0.0026,-0.0034,-0.0016,-24.1439,3.7797,-40.7329,
5.7690,0.1923,-0.0283,1.0225,-0.0196,0.0232,0.0080,-0.0026,-0.0034,-0.0016,-24.1439,3.7797,-40.7329,
5.7700,0.1909,-0.0301,1.0217,-0.0196,0.0232,0.0080,-0.0026,-0.0034,-0.0016,-24.1439,3.7797,-40.7329,
5.7710,0.1909,-0.0301,1.0217,0.0067,0.0126,-0.0214,-0.0026,-0.0034,-0.0016,-24.1439,3.7797,-40.7329,
5.8010,0.1910,-0.0318,1.0108,0.0067,0.0126,-0.0214,-0.0026,-0.0034,-0.0016,-24.1439,3.7797,-40.7329,
5.8020,0.1910,-0.0318,1.0108,0.0067,0.0126,-0.0214,-0.0026,-0.0034,-0.0016,-24.1257,3.7934,-40.7590,
5.8430,0.1929,-0.0311,0.9843,0.0067,0.0126,-0.0214,-0.0026,-0.0034,-0.0016,-24.1257,3.7934,-40.7590,
5.8450,0.1929,-0.0311,0.9843,0.0067,0.0126,-0.0214,0.0059,-0.0162,-0.0022,-24.1257,3.7934,-40.7590,
5.8460,0.1981,-0.0271,1.0217,0.0067,0.0126,-0.0214,0.0059,-0.0162,-0.0022,-24.1257,3.7934,-40.7590,
5.8460,0.1974,-0.0259,1.0267,0.0067,0.0126,-0.0214,0.0059,-0.0162,-0.0022,-24.1257,3.7934,-40.7590,
5.8480,0.1974,-0.0259,1.0267,0.0067,0.0126,-0.0214,-0.0121,0.0021,0.0027,-24.1257,3.7934,-40.7590,
5.8480,0.1974,-0.0259,1.0267,-0.0224,0.0195,0.0502,-0.0121,0.0021,0.0027,-24.1257,3.7934,-40.7590,
5.8620,0.1974,-0.0259,1.0267,-0.0224,0.0195,0.0502,-0.0121,0.0021,0.0027,-24.1120,3.8067,-40.7124,
5.9040,0.1974,-0.0259,1.0267,-0.0224,0.0195,0.0502,-0.0020,0.0140,0.0024,-24.1120,3.8067,-40.7124,
5.9050,0.1956,-0.0282,0.9969,-0.0224,0.0195,0.0502,-0.0020,0.0140,0.0024,-24.1120,3.8067,-40.7124,
5.9060,0.1914,-0.0292,1.0118,-0.0224,0.0195,0.0502,-0.0020,0.0140,0.0024,-24.1120,3.8067,-40.7124,
5.9060,0.1890,-0.0317,1.0230,-0.0224,0.0195,0.0502,-0.0020,0.0140,0.0024,-24.1120,3.8067,-40.7124,
5.9070,0.1890,-0.0317,1.0230,0.0191,0.0285,-0.0146,-0.0020,0.0140,0.0024,-24.1120,3.8067,-40.7124,
5.9440,0.1854,-0.0314,1.0155,0.0191,0.0285,-0.0146,-0.0020,0.0140,0.0024,-24.1120,3.8067,-40.7124,
5.9460,0.1854,-0.0314,1.0155,0.0191,0.0285,-0.0146,-0.0011,0.0040,0.0012,-24.1120,3.8067,-40.7124,
5.9470,0.1854,-0.0314,1.0155,0.0191,0.0285,-0.0146,-0.0011,0.0040,0.0012,-24.0654,3.8262,-40.6972,
5.9770,0.1882,-0.0276,1.0108,0.0191,0.0285,-0.0146,-0.0011,0.0040,0.0012,-24.0654,3.8262,-40.6972,
5.9780,0.1882,-0.0276,1.0108,0.0191,0.0285,-0.0146,-0.0051,-0.0153,-0.0025,-24.0654,3.8262,-40.6972,
5.9790,0.1954,-0.0287,1.0107,0.0191,0.0285,-0.0146,-0.0051,-0.0153,-0.0025,-24.0654,3.8262,-40.6972,
5.9810,0.1995,-0.0306,1.0142,0.0191,0.0285,-0.0146,-0.0051,-0.0153,-0.0025,-24.0654,3.8262,-40.6972,
5.9820,0.1995,-0.0306,1.0142,-0.0297,0.0178,-0.0084,-0.0051,-0.0153,-0.0025,-24.0654,3.8262,-40.6972,
6.0020,0.1995,-0.0306,1.0142,-0.0297,0.0178,-0.0084,-0.0051,-0.0153,-0.0025,-24.1074,3.8164,-40.6984,
6.0040,0.1995,-0.0306,1.0142,-0.0297,0.0178,-0.0084,-0.0087,-0.0025,-0.0013,-24.1074,3.8164,-40.6984,
6.0040,0.1987,-0.0310,1.0131,-0.0297,0.0178,-0.0084,-0.0087,-0.0025,-0.0013,-24.1074,3.8164,-40.6984,
6.0410,0.1932,-0.0334,1.0119,-0.0297,0.0178,-0.0084,-0.0087,-0.0025,-0.0013,-24.1074,3.8164,-40.6984,
6.0420,0.1932,-0.0334,1.0119,-0.0070,0.0262,-0.0003,-0.0087,-0.0025,-0.0013,-24.1074,3.8164,-40.6984,
6.0420,0.1912,-0.0325,1.0145,-0.0070,0.0262,-0.0003,-0.0087,-0.0025,-0.0013,-24.1074,3.8164,-40.6984,
6.0430,0.1912,-0.0325,1.0145,-0.0070,0.0262,-0.0003,-0.0041,0.0037,-0.0010,-24.1074,3.8164,-40.6984,
6.0630,0.1924,-0.0305,1.0131,-0.0070,0.0262,-0.0003,-0.0041,0.0037,-0.0010,-24.1074,3.8164,-40.6984,
6.0650,0.1924,-0.0305,1.0131,-0.0070,0.0262,-0.0003,-0.0041,0.0037,-0.0010,-24.1589,3.7007,-40.8655,
6.0960,0.1930,-0.0285,1.0120,-0.0070,0.0262,-0.0003,-0.0041,0.0037,-0.0010,-24.1589,3.7007,-40.8655,
6.0980,0.1930,-0.0285,1.0120,-0.0070,0.0262,-0.0003,-0.0011,-0.0003,0.0006,-24.1589,3.7007,-40.8655,
6.1080,0.1919,-0.0288,1.0135,-0.0070,0.0262,-0.0003,-0.0011,-0.0003,0.0006,-24.1589,3.7007,-40.8655,
6.1170,0.1919,-0.0288,1.0135,-0.0070,0.0262,-0.0003,-0.0014,0.0009,-0.0000,-24.1589,3.7007,-40.8655,
6.1180,0.1925,-0.0295,1.0141,-0.0070,0.0262,-0.0003,-0.0014,0.0009,-0.0000,-24.1589,3.7007,-40.8655,
6.1180,0.1925,-0.0295,1.0141,0.0024,-0.0018,0.0082,-0.0014,0.0009,-0.0000,-24.1589,3.7007,-40.8655,
6.1420,0.1927,-0.0316,1.0147,0.0024,-0.0018,0.0082,-0.0014,0.0009,-0.0000,-24.1589,3.7007,-40.8655,
6.1430,0.1927,-0.0316,1.0147,0.0024,-0.0018,0.0082,-0.0014,0.0009,-0.0000,-24.2155,3.6998,-40.8876,
6.1760,0.1927,-0.0316,1.0147,0.0024,-0.0018,0.0082,-0.0029,-0.0028,-0.0010,-24.2155,3.6998,-40.8876,
6.1770,0.1923,-0.0276,1.0159,0.0024,-0.0018,0.0082,-0.0029,-0.0028,-0.0010,-24.2155,3.6998,-40.8876,
6.1780,0.1923,-0.0276,1.0159,-0.0132,0.0270,0.0067,-0.0029,-0.0028,-0.0010,-24.2155,3.6998,-40.8876,
6.1780,0.1929,-0.0265,1.0071,-0.0132,0.0270,0.0067,-0.0029,-0.0028,-0.0010,-24.2155,3.6998,-40.8876,
6.2020,0.1936,-0.0300,1.0144,-0.0132,0.0270,0.0067,-0.0029,-0.0028,-0.0010,-24.2155,3.6998,-40.8876,
6.2030,0.1936,-0.0300,1.0144,-0.0132,0.0270,0.0067,-0.0029,-0.0028,-0.0010,-24.2621,3.7126,-40.8894,
6.2040,0.1936,-0.0300,1.0144,-0.0132,0.0270,0.0067,-0.0038,-0.0000,-0.0003,-24.2621,3.7126,-40.8894,
6.2420,0.1936,-0.0300,1.0144,-0.0132,0.0270,0.0067,-0.0051,0.0015,-0.0013,-24.2621,3.7126,-40.8894,
6.2430,0.1921,-0.0296,1.0119,-0.0132,0.0270,0.0067,-0.0051,0.0015,-0.0013,-24.2621,3.7126,-40.8894,
6.2430,0.1923,-0.0290,1.0131,-0.0132,0.0270,0.0067,-0.0051,0.0015,-0.0013,-24.2621,3.7126,-40.8894,
6.2570,0.1905,-0.0310,1.0141,-0.0132,0.0270,0.0067,-0.0051,0.0015,-0.0013,-24.2621,3.7126,-40.8894,
6.2580,0.1905,-0.0310,1.0141,-0.0076,0.0301,0.0047,-0.0051,0.0015,-0.0013,-24.2621,3.7126,-40.8894,
6.2620,0.1905,-0.0310,1.0141,-0.0076,0.0301,0.0047,-0.0051,0.0015,-0.0013,-24.2803,3.7200,-40.8901,
6.3110,0.1920,-0.0301,1.0152,-0.0076,0.0301,0.0047,-0.0051,0.0015,-0.0013,-24.2803,3.7200,-40.8901,
6.3130,0.1932,-0.0294,1.0134,-0.0076,0.0301,0.0047,-0.0051,0.0015,-0.0013,-24.2803,3.7200,-40.8901,
6.3140,0.1932,-0.0294,1.0134,-0.0076,0.0301,0.0047,-0.0014,-0.0009,0.0015,-24.2803,3.7200,-40.8901,
6.3140,0.1947,-0.0306,1.0118,-0.0076,0.0301,0.0047,-0.0014,-0.0009,0.0015,-24.2803,3.7200,-40.8901,
6.3150,0.1947,-0.0306,1.0118,-0.0076,0.0301,0.0047,0.0001,-0.0021,0.0027,-24.2803,3.7200,-40.8901,
6.3150,0.1947,-0.0306,1.0118,-0.0165,0.0156,0.0053,0.0001,-0.0021,0.0027,-24.2803,3.7200,-40.8901,
6.3430,0.1947,-0.0306,1.0118,-0.0165,0.0156,0.0053,0.0001,-0.0021,0.0027,-24.2790,3.7090,-40.8969,
6.3460,0.1948,-0.0305,1.0137,-0.0165,0.0156,0.0053,0.0001,-0.0021,0.0027,-24.2790,3.7090,-40.8969,
6.3770,0.1938,-0.0312,1.0122,-0.0165,0.0156,0.0053,0.0001,-0.0021,0.0027,-24.2790,3.7090,-40.8969,
6.3790,0.1926,-0.0311,1.0122,-0.0165,0.0156,0.0053,0.0001,-0.0021,0.0027,-24.2790,3.7090,-40.8969,
6.3790,0.1926,-0.0311,1.0122,-0.0165,0.0156,0.0053,-0.0041,-0.0009,0.0003,-24.2790,3.7090,-40.8969,
6.3910,0.1926,-0.0311,1.0122,-0.0165,0.0156,0.0053,-0.0029,-0.0031,-0.0006,-24.2790,3.7090,-40.8969,
6.3920,0.1935,-0.0301,1.0122,-0.0165,0.0156,0.0053,-0.0029,-0.0031,-0.0006,-24.2790,3.7090,-40.8969,
6.3920,0.1935,-0.0301,1.0122,-0.0005,0.0144,0.0090,-0.0029,-0.0031,-0.0006,-24.2790,3.7090,-40.8969,
6.4030,0.1935,-0.0301,1.0122,-0.0005,0.0144,0.0090,-0.0029,-0.0031,-0.0006,-24.2737,3.6847,-40.9163,
6.4430,0.1935,-0.0301,1.0122,-0.0005,0.0144,0.0090,-0.0029,-0.0028,-0.0013,-24.2737,3.6847,-40.9163,
6.4440,0.1941,-0.0298,1.0124,-0.0005,0.0144,0.0090,-0.0029,-0.0028,-0.0013,-24.2737,3.6847,-40.9163,
6.4450,0.1938,-0.0303,1.0125,-0.0005,0.0144,0.0090,-0.0029,-0.0028,-0.0013,-24.2737,3.6847,-40.9163,
6.4510,0.1938,-0.0303,1.0125,-0.0034,0.0096,-0.0024,-0.0029,-0.0028,-0.0013,-24.2737,3.6847,-40.9163,
6.4520,0.1932,-0.0292,1.0128,-0.0034,0.0096,-0.0024,-0.0029,-0.0028,-0.0013,-24.2737,3.6847,-40.9163,
6.4620,0.1932,-0.0292,1.0128,-0.0034,0.0096,-0.0024,-0.0029,-0.0028,-0.0013,-24.3157,3.6563,-40.9086,
6.5090,0.1919,-0.0282,1.0133,-0.0034,0.0096,-0.0024,-0.0029,-0.0028,-0.0013,-24.3157,3.6563,-40.9086,
6.5100,0.1919,-0.0282,1.0133,-0.0034,0.0096,-0.0024,-0.0026,-0.0018,-0.0016,-24.3157,3.6563,-40.9086,
6.5100,0.1919,-0.0282,1.0133,-0.0034,0.0096,-0.0024,-0.0041,-0.0018,-0.0003,-24.3157,3.6563,-40.9086,
6.5110,0.1914,-0.0288,1.0145,-0.0034,0.0096,-0.0024,-0.0041,-0.0018,-0.0003,-24.3157,3.6563,-40.9086,
6.5110,0.1919,-0.0294,1.0146,-0.0034,0.0096,-0.0024,-0.0041,-0.0018,-0.0003,-24.3157,3.6563,-40.9086,
6.5290,0.1919,-0.0294,1.0146,-0.0039,0.0209,0.0016,-0.0041,-0.0018,-0.0003,-24.3157,3.6563,-40.9086,
6.5300,0.1913,-0.0294,1.0126,-0.0039,0.0209,0.0016,-0.0041,-0.0018,-0.0003,-24.3157,3.6563,-40.9086,
6.5430,0.1913,-0.0294,1.0126,-0.0039,0.0209,0.0016,-0.0041,-0.0018,-0.0003,-24.3112,3.6851,-40.8980,
6.5750,0.1936,-0.0298,1.0136,-0.0039,0.0209,0.0016,-0.0041,-0.0018,-0.0003,-24.3112,3.6851,-40.8980,
6.5760,0.1934,-0.0288,1.0130,-0.0039,0.0209,0.0016,-0.0041,-0.0018,-0.0003,-24.3112,3.6851,-40.8980,
6.5760,0.1934,-0.0288,1.0130,-0.0039,0.0209,0.0016,-0.0032,-0.0034,-0.0000,-24.3112,3.6851,-40.8980,
6.5870,0.1945,-0.0273,1.0113,-0.0039,0.0209,0.0016,-0.0032,-0.0034,-0.0000,-24.3112,3.6851,-40.8980,
6.5880,0.1945,-0.0273,1.0113,-0.0039,0.0209,0.0016,-0.0054,-0.0052,0.0003,-24.3112,3.6851,-40.8980,
6.5890,0.1945,-0.0273,1.0113,-0.0235,0.0264,0.0112,-0.0054,-0.0052,0.0003,-24.3112,3.6851,-40.8980,
6.6020,0.1945,-0.0273,1.0113,-0.0235,0.0264,0.0112,-0.0054,-0.0052,0.0003,-24.2874,3.6712,-40.9110,
6.6420,0.1945,-0.0273,1.0113,-0.0235,0.0264,0.0112,-0.0093,0.0006,-0.0006,-24.2874,3.6712,-40.9110,
6.6440,0.1949,-0.0300,1.0059,-0.0235,0.0264,0.0112,-0.0093,0.0006,-0.0006,-24.2874,3.6712,-40.9110,
6.6440,0.1947,-0.0331,1.0118,-0.0235,0.0264,0.0112,-0.0093,0.0006,-0.0006,-24.2874,3.6712,-40.9110,
6.6620,0.1947,-0.0331,1.0118,-0.0235,0.0264,0.0112,-0.0093,0.0006,-0.0006,-24.2835,3.6842,-40.8817,
6.6640,0.1938,-0.0307,1.0155,-0.0235,0.0264,0.0112,-0.0093,0.0006,-0.0006,-24.2835,3.6842,-40.8817,
6.6650,0.1912,-0.0287,1.0230,-0.0235,0.0264,0.0112,-0.0093,0.0006,-0.0006,-24.2835,3.6842,-40.8817,
6.6650,0.1912,-0.0287,1.0230,-0.0235,0.0264,0.0112,-0.0072,0.0003,-0.0006,-24.2835,3.6842,-40.8817,
6.6660,0.1912,-0.0287,1.0230,0.0008,0.0312,-0.0074,-0.0072,0.0003,-0.0006,-24.2835,3.6842,-40.8817,
6.7080,0.1912,-0.0287,1.0230,0.0008,0.0312,-0.0074,0.0075,-0.0110,-0.0025,-24.2835,3.6842,-40.8817,
6.7090,0.1915,-0.0307,1.0197,0.0008,0.0312,-0.0074,0.0075,-0.0110,-0.0025,-24.2835,3.6842,-40.8817,
6.7100,0.1932,-0.0327,1.0115,0.0008,0.0312,-0.0074,0.0075,-0.0110,-0.0025,-24.2835,3.6842,-40.8817,
6.7220,0.1942,-0.0299,0.9836,0.0008,0.0312,-0.0074,0.0075,-0.0110,-0.0025,-24.2835,3.6842,-40.8817,
6.7240,0.1942,-0.0299,0.9836,-0.0109,0.0092,0.0242,0.0075,-0.0110,-0.0025,-24.2835,3.6842,-40.8817,
6.7420,0.1942,-0.0299,0.9836,-0.0109,0.0092,0.0242,0.0075,-0.0110,-0.0025,-24.2842,3.6949,-40.8617,
6.7750,0.1989,-0.0239,1.0252,-0.0109,0.0092,0.0242,0.0075,-0.0110,-0.0025,-24.2842,3.6949,-40.8617,
6.7770,0.1976,-0.0260,1.0252,-0.0109,0.0092,0.0242,0.0075,-0.0110,-0.0025,-24.2842,3.6949,-40.8617,
6.7780,0.1976,-0.0260,1.0252,-0.0109,0.0092,0.0242,-0.0151,-0.0119,0.0012,-24.2842,3.6949,-40.8617,
6.8020,0.1946,-0.0294,0.9966,-0.0109,0.0092,0.0242,-0.0151,-0.0119,0.0012,-24.2842,3.6949,-40.8617,
6.8030,0.1946,-0.0294,0.9966,-0.0109,0.0092,0.0242,0.0062,0.0037,-0.0003,-24.2842,3.6949,-40.8617,
6.8030,0.1909,-0.0309,1.0152,-0.0109,0.0092,0.0242,0.0062,0.0037,-0.0003,-24.2842,3.6949,-40.8617,
6.8040,0.1909,-0.0309,1.0152,-0.0017,0.0139,-0.0598,0.0062,0.0037,-0.0003,-24.2842,3.6949,-40.8617,
6.8050,0.1909,-0.0309,1.0152,-0.0017,0.0139,-0.0598,0.0062,0.0037,-0.0003,-24.3287,3.7119,-40.8402,
6.8420,0.1893,-0.0323,1.0177,-0.0017,0.0139,-0.0598,0.0062,0.0037,-0.0003,-24.3287,3.7119,-40.8402,
6.8430,0.1870,-0.0311,1.0141,-0.0017,0.0139,-0.0598,0.0062,0.0037,-0.0003,-24.3287,3.7119,-40.8402,
6.8440,0.1870,-0.0311,1.0141,-0.0017,0.0139,-0.0598,-0.0045,0.0088,0.0033,-24.3287,3.7119,-40.8402,
6.8600,0.1894,-0.0281,1.0147,-0.0017,0.0139,-0.0598,-0.0045,0.0088,0.0033,-24.3287,3.7119,-40.8402,
6.8630,0.1894,-0.0281,1.0147,-0.0017,0.0139,-0.0598,-0.0066,-0.0223,-0.0016,-24.3287,3.7119,-40.8402,
6.8630,0.1894,-0.0281,1.0147,-0.0028,0.0380,0.0384,-0.0066,-0.0223,-0.0016,-24.3287,3.7119,-40.8402,
6.8640,0.1894,-0.0281,1.0147,-0.0028,0.0380,0.0384,-0.0066,-0.0223,-0.0016,-24.3827,3.7130,-40.8050,
6.9080,0.1967,-0.0292,1.0124,-0.0028,0.0380,0.0384,-0.0066,-0.0223,-0.0016,-24.3827,3.7130,-40.8050,
6.9100,0.2020,-0.0304,1.0122,-0.0028,0.0380,0.0384,-0.0066,-0.0223,-0.0016,-24.3827,3.7130,-40.8050,
6.9110,0.2020,-0.0304,1.0122,-0.0028,0.0380,0.0384,-0.0099,-0.0144,-0.0016,-24.3827,3.7130,-40.8050,
6.9380,0.2020,-0.0304,1.0122,-0.0528,0.0179,0.0252,-0.0099,-0.0144,-0.0016,-24.3827,3.7130,-40.8050,
6.9400,0.1993,-0.0325,1.0125,-0.0528,0.0179,0.0252,-0.0099,-0.0144,-0.0016,-24.3827,3.7130,-40.8050,
6.9400,0.1993,-0.0325,1.0125,-0.0528,0.0179,0.0252,-0.0099,-0.0003,-0.0028,-24.3827,3.7130,-40.8050,
6.9410,0.1942,-0.0338,1.0136,-0.0528,0.0179,0.0252,-0.0099,-0.0003,-0.0028,-24.3827,3.7130,-40.8050,
6.9460,0.1942,-0.0338,1.0136,-0.0528,0.0179,0.0252,-0.0099,-0.0003,-0.0028,-24.4209,3.7189,-40.8194,
6.9750,0.1934,-0.0331,1.0115,-0.0528,0.0179,0.0252,-0.0099,-0.0003,-0.0028,-24.4209,3.7189,-40.8194,
6.9970,0.1934,-0.0331,1.0115,0.0281,0.0053,0.0029,-0.0099,-0.0003,-0.0028,-24.4209,3.7189,-40.8194,
6.9990,0.1934,-0.0331,1.0115,0.0281,0.0053,0.0029,-0.0038,-0.0052,-0.0010,-24.4209,3.7189,-40.8194,
6.9990,0.1941,-0.0312,1.0107,0.0281,0.0053,0.0029,-0.0038,-0.0052,-0.0010,-24.4209,3.7189,-40.8194,
7.0000,0.1942,-0.0301,1.0118,0.0281,0.0053,0.0029,-0.0038,-0.0052,-0.0010,-24.4209,3.7189,-40.8194,
7.0030,0.1942,-0.0301,1.0118,0.0281,0.0053,0.0029,-0.0038,-0.0052,-0.0010,-24.3981,3.7222,-40.8702,
7.0410,0.1942,-0.0301,1.0118,0.0281,0.0053,0.0029,-0.0048,-0.0086,-0.0016,-24.3981,3.7222,-40.8702,
7.0430,0.1948,-0.0301,1.0173,0.0281,0.0053,0.0029,-0.0048,-0.0086,-0.0016,-24.3981,3.7222,-40.8702,
7.0430,0.1930,-0.0296,1.0155,0.0281,0.0053,0.0029,-0.0048,-0.0086,-0.0016,-24.3981,3.7222,-40.8702,
7.0620,0.1930,-0.0296,1.0155,0.0281,0.0053,0.0029,-0.0035,-0.0049,-0.0040,-24.3981,3.7222,-40.8702,
7.0630,0.1930,-0.0296,1.0155,0.0281,0.0053,0.0029,-0.0035,-0.0049,-0.0040,-24.3664,3.7189,-40.8855,
7.0640,0.1929,-0.0301,1.0179,0.0281,0.0053,0.0029,-0.0035,-0.0049,-0.0040,-24.3664,3.7189,-40.8855,
7.0740,0.1929,-0.0301,1.0179,-0.0170,0.0113,-0.0022,-0.0035,-0.0049,-0.0040,-24.3664,3.7189,-40.8855,
7.0750,0.1934,-0.0287,1.0163,-0.0170,0.0113,-0.0022,-0.0035,-0.0049,-0.0040,-24.3664,3.7189,-40.8855,
7.0970,0.1934,-0.0287,1.0163,-0.0170,0.0113,-0.0022,-0.0051,-0.0052,-0.0010,-24.3664,3.7189,-40.8855,
7.0990,0.1958,-0.0273,1.0069,-0.0170,0.0113,-0.0022,-0.0051,-0.0052,-0.0010,-24.3664,3.7189,-40.8855,
7.1330,0.1958,-0.0273,1.0069,-0.0170,0.0113,-0.0022,-0.0060,0.0052,-0.0003,-24.3664,3.7189,-40.8855,
7.1350,0.1946,-0.0298,1.0144,-0.0170,0.0113,-0.0022,-0.0060,0.0052,-0.0003,-24.3664,3.7189,-40.8855,
7.1360,0.1941,-0.0289,1.0115,-0.0170,0.0113,-0.0022,-0.0060,0.0052,-0.0003,-24.3664,3.7189,-40.8855,
7.1360,0.1941,-0.0289,1.0115,-0.0217,0.0279,0.0387,-0.0060,0.0052,-0.0003,-24.3664,3.7189,-40.8855,
7.1420,0.1941,-0.0289,1.0115,-0.0217,0.0279,0.0387,-0.0060,0.0052,-0.0003,-24.3821,3.7599,-40.8605,
7.1760,0.1941,-0.0289,1.0115,-0.0217,0.0279,0.0387,-0.0011,0.0015,-0.0000,-24.3821,3.7599,-40.8605,
7.1780,0.1934,-0.0300,1.0135,-0.0217,0.0279,0.0387,-0.0011,0.0015,-0.0000,-24.3821,3.7599,-40.8605,
7.1780,0.1924,-0.0299,1.0136,-0.0217,0.0279,0.0387,-0.0011,0.0015,-0.0000,-24.3821,3.7599,-40.8605,
7.2020,0.1924,-0.0299,1.0136,-0.0217,0.0279,0.0387,-0.0011,0.0015,-0.0000,-24.3692,3.7552,-40.8400,
7.2040,0.1940,-0.0298,1.0139,-0.0217,0.0279,0.0387,-0.0011,0.0015,-0.0000,-24.3692,3.7552,-40.8400,
7.2120,0.1957,-0.0294,1.0144,-0.0217,0.0279,0.0387,-0.0011,0.0015,-0.0000,-24.3692,3.7552,-40.8400,
7.2130,0.1957,-0.0294,1.0144,-0.0217,0.0279,0.0387,0.0017,-0.0006,0.0009,-24.3692,3.7552,-40.8400,
7.2130,0.1957,-0.0294,1.0144,-0.0070,0.0310,-0.0134,0.0017,-0.0006,0.0009,-24.3692,3.7552,-40.8400,
7.2410,0.1969,-0.0304,1.0108,-0.0070,0.0310,-0.0134,0.0017,-0.0006,0.0009,-24.3692,3.7552,-40.8400,
7.2620,0.1969,-0.0304,1.0108,-0.0070,0.0310,-0.0134,-0.0035,-0.0009,0.0012,-24.3692,3.7552,-40.8400,
7.2630,0.1969,-0.0307,1.0129,-0.0070,0.0310,-0.0134,-0.0035,-0.0009,0.0012,-24.3692,3.7552,-40.8400,
7.2630,0.1969,-0.0307,1.0129,-0.0070,0.0310,-0.0134,-0.0035,-0.0009,0.0012,-24.3831,3.7402,-40.8371,
7.2700,0.1969,-0.0307,1.0129,-0.0137,0.0215,0.0112,-0.0035,-0.0009,0.0012,-24.3831,3.7402,-40.8371,
7.2710,0.1957,-0.0314,1.0111,-0.0137,0.0215,0.0112,-0.0035,-0.0009,0.0012,-24.3831,3.7402,-40.8371,
7.3100,0.1948,-0.0315,1.0101,-0.0137,0.0215,0.0112,-0.0035,-0.0009,0.0012,-24.3831,3.7402,-40.8371,
7.3110,0.1948,-0.0315,1.0101,-0.0137,0.0215,0.0112,-0.0035,-0.0040,-0.0000,-24.3831,3.7402,-40.8371,
7.3110,0.1963,-0.0311,1.0086,-0.0137,0.0215,0.0112,-0.0035,-0.0040,-0.0000,-24.3831,3.7402,-40.8371,
7.3420,0.1969,-0.0312,1.0109,-0.0137,0.0215,0.0112,-0.0035,-0.0040,-0.0000,-24.3831,3.7402,-40.8371,
7.3430,0.1969,-0.0312,1.0109,-0.0137,0.0215,0.0112,-0.0035,-0.0040,-0.0000,-24.3830,3.7147,-40.8778,
7.3440,0.1969,-0.0312,1.0109,-0.0137,0.0215,0.0112,-0.0023,-0.0055,-0.0000,-24.3830,3.7147,-40.8778,
7.3480,0.1969,-0.0312,1.0109,0.0060,0.0102,-0.0114,-0.0023,-0.0055,-0.0000,-24.3830,3.7147,-40.8778,
7.3490,0.1964,-0.0306,1.0107,0.0060,0.0102,-0.0114,-0.0023,-0.0055,-0.0000,-24.3830,3.7147,-40.8778,
7.3750,0.1964,-0.0306,1.0107,0.0060,0.0102,-0.0114,-0.0005,-0.0006,-0.0016,-24.3830,3.7147,-40.8778,
7.3770,0.1965,-0.0300,1.0109,0.0060,0.0102,-0.0114,-0.0005,-0.0006,-0.0016,-24.3830,3.7147,-40.8778,
7.4030,0.1940,-0.0303,1.0137,0.0060,0.0102,-0.0114,-0.0005,-0.0006,-0.0016,-24.3830,3.7147,-40.8778,
7.4040,0.1940,-0.0303,1.0137,0.0060,0.0102,-0.0114,-0.0005,-0.0006,-0.0016,-24.3705,3.6970,-40.8950,
7.4070,0.1940,-0.0303,1.0137,0.0060,0.0102,-0.0114,-0.0029,0.0006,-0.0016,-24.3705,3.6970,-40.8950,
7.4070,0.1940,-0.0292,1.0129,0.0060,0.0102,-0.0114,-0.0029,0.0006,-0.0016,-24.3705,3.6970,-40.8950,
7.4080,0.1940,-0.0292,1.0129,0.0052,0.0091,-0.0216,-0.0029,0.0006,-0.0016,-24.3705,3.6970,-40.8950,
7.4420,0.1927,-0.0296,1.0119,0.0052,0.0091,-0.0216,-0.0029,0.0006,-0.0016,-24.3705,3.6970,-40.8950,
7.4620,0.1927,-0.0296,1.0119,0.0052,0.0091,-0.0216,-0.0029,0.0006,-0.0016,-24.3391,3.6989,-40.8794,
7.4630,0.1936,-0.0295,1.0128,0.0052,0.0091,-0.0216,-0.0029,0.0006,-0.0016,-24.3391,3.6989,-40.8794,
7.4640,0.1936,-0.0295,1.0128,0.0052,0.0091,-0.0216,-0.0051,-0.0012,-0.0000,-24.3391,3.6989,-40.8794,
7.4840,0.1936,-0.0295,1.0128,-0.0118,0.0223,0.0019,-0.0051,-0.0012,-0.0000,-24.3391,3.6989,-40.8794,
7.4850,0.1936,-0.0295,1.0128,-0.0118,0.0223,0.0019,-0.0045,-0.0046,-0.0010,-24.3391,3.6989,-40.8794,
7.4860,0.1946,-0.0298,1.0092,-0.0118,0.0223,0.0019,-0.0045,-0.0046,-0.0010,-24.3391,3.6989,-40.8794,
7.4860,0.1954,-0.0282,1.0108,-0.0118,0.0223,0.0019,-0.0045,-0.0046,-0.0010,-24.3391,3.6989,-40.8794,
7.5080,0.1958,-0.0285,1.0064,-0.0118,0.0223,0.0019,-0.0045,-0.0046,-0.0010,-24.3391,3.6989,-40.8794,
7.5440,0.1958,-0.0285,1.0064,-0.0118,0.0223,0.0019,-0.0045,-0.0046,-0.0010,-24.3256,3.7072,-40.8661,
7.5460,0.1963,-0.0315,1.0087,-0.0118,0.0223,0.0019,-0.0045,-0.0046,-0.0010,-24.3256,3.7072,-40.8661,
7.5470,0.1963,-0.0315,1.0087,-0.0118,0.0223,0.0019,-0.0090,0.0006,-0.0003,-24.3256,3.7072,-40.8661,
7.5470,0.1958,-0.0331,1.0156,-0.0118,0.0223,0.0019,-0.0090,0.0006,-0.0003,-24.3256,3.7072,-40.8661,
7.5480,0.1958,-0.0331,1.0156,-0.0135,0.0295,-0.0101,-0.0090,0.0006,-0.0003,-24.3256,3.7072,-40.8661,
7.5750,0.1948,-0.0293,1.0177,-0.0135,0.0295,-0.0101,-0.0090,0.0006,-0.0003,-24.3256,3.7072,-40.8661,
7.5760,0.1948,-0.0293,1.0177,-0.0135,0.0295,-0.0101,-0.0075,-0.0009,-0.0003,-24.3256,3.7072,-40.8661,
7.5970,0.1946,-0.0307,1.0217,-0.0135,0.0295,-0.0101,-0.0075,-0.0009,-0.0003,-24.3256,3.7072,-40.8661,
7.6020,0.1936,-0.0311,1.0125,-0.0135,0.0295,-0.0101,-0.0075,-0.0009,-0.0003,-24.3256,3.7072,-40.8661,
7.6030,0.1936,-0.0311,1.0125,-0.0135,0.0295,-0.0101,0.0047,-0.0159,-0.0006,-24.3256,3.7072,-40.8661,
7.6030,0.1936,-0.0311,1.0125,-0.0135,0.0295,-0.0101,0.0047,-0.0159,-0.0006,-24.3131,3.7129,-40.8382,
7.6210,0.1936,-0.0311,1.0125,-0.0065,0.0093,-0.0063,0.0047,-0.0159,-0.0006,-24.3131,3.7129,-40.8382,
7.6220,0.1969,-0.0328,0.9949,-0.0065,0.0093,-0.0063,0.0047,-0.0159,-0.0006,-24.3131,3.7129,-40.8382,
7.6420,0.2020,-0.0267,0.9887,-0.0065,0.0093,-0.0063,0.0047,-0.0159,-0.0006,-24.3131,3.7129,-40.8382,
7.6430,0.2020,-0.0267,0.9887,-0.0065,0.0093,-0.0063,-0.0041,-0.0180,0.0009,-24.3131,3.7129,-40.8382,
7.6620,0.2020,-0.0267,0.9887,-0.0065,0.0093,-0.0063,-0.0041,-0.0180,0.0009,-24.3304,3.6936,-40.8402,
7.6640,0.2002,-0.0240,1.0363,-0.0065,0.0093,-0.0063,-0.0041,-0.0180,0.0009,-24.3304,3.6936,-40.8402,
7.6820,0.1997,-0.0298,1.0057,-0.0065,0.0093,-0.0063,-0.0041,-0.0180,0.0009,-24.3304,3.6936,-40.8402,
7.6830,0.1997,-0.0298,1.0057,-0.0065,0.0093,-0.0063,-0.0072,0.0064,0.0003,-24.3304,3.6936,-40.8402,
7.6840,0.1997,-0.0298,1.0057,-0.0144,0.0114,-0.0073,-0.0072,0.0064,0.0003,-24.3304,3.6936,-40.8402,
7.7080,0.1927,-0.0329,1.0012,-0.0144,0.0114,-0.0073,-0.0072,0.0064,0.0003,-24.3304,3.6936,-40.8402,
7.7420,0.1927,-0.0329,1.0012,-0.0144,0.0114,-0.0073,-0.0099,0.0085,0.0006,-24.3304,3.6936,-40.8402,
7.7430,0.1914,-0.0309,1.0246,-0.0144,0.0114,-0.0073,-0.0099,0.0085,0.0006,-24.3304,3.6936,-40.8402,
7.7440,0.1899,-0.0314,1.0140,-0.0144,0.0114,-0.0073,-0.0099,0.0085,0.0006,-24.3304,3.6936,-40.8402,
7.7440,0.1899,-0.0314,1.0140,-0.0144,0.0114,-0.0073,-0.0099,0.0085,0.0006,-24.3232,3.6891,-40.8796,
7.7580,0.1899,-0.0314,1.0140,0.0255,0.0446,-0.0332,-0.0099,0.0085,0.0006,-24.3232,3.6891,-40.8796,
7.7590,0.1899,-0.0314,1.0140,0.0255,0.0446,-0.0332,-0.0035,-0.0144,0.0015,-24.3232,3.6891,-40.8796,
7.7600,0.1923,-0.0309,1.0136,0.0255,0.0446,-0.0332,-0.0035,-0.0144,0.0015,-24.3232,3.6891,-40.8796,
7.8030,0.1965,-0.0296,1.0118,0.0255,0.0446,-0.0332,-0.0035,-0.0144,0.0015,-24.3232,3.6891,-40.8796,
7.8040,0.1965,-0.0296,1.0118,0.0255,0.0446,-0.0332,-0.0054,-0.0079,-0.0003,-24.3232,3.6891,-40.8796,
7.8040,0.1965,-0.0296,1.0118,0.0255,0.0446,-0.0332,-0.0054,-0.0079,-0.0003,-24.2950,3.7146,-40.8918,
7.8060,0.2004,-0.0299,1.0146,0.0255,0.0446,-0.0332,-0.0054,-0.0079,-0.0003,-24.2950,3.7146,-40.8918,
7.8160,0.2004,-0.0299,1.0146,-0.0524,0.0116,0.0441,-0.0054,-0.0079,-0.0003,-24.2950,3.7146,-40.8918,
7.8180,0.1997,-0.0306,1.0120,-0.0524,0.0116,0.0441,-0.0054,-0.0079,-0.0003,-24.2950,3.7146,-40.8918,
7.8430,0.1997,-0.0306,1.0120,-0.0524,0.0116,0.0441,-0.0041,0.0012,-0.0022,-24.2950,3.7146,-40.8918,
7.8440,0.1971,-0.0309,1.0097,-0.0524,0.0116,0.0441,-0.0041,0.0012,-0.0022,-24.2950,3.7146,-40.8918,
7.8630,0.1948,-0.0318,1.0109,-0.0524,0.0116,0.0441,-0.0041,0.0012,-0.0022,-24.2950,3.7146,-40.8918,
7.8640,0.1948,-0.0318,1.0109,-0.0524,0.0116,0.0441,-0.0041,0.0012,-0.0022,-24.2540,3.7300,-40.8146,
7.8940,0.1948,-0.0318,1.0109,0.0197,0.0219,0.0046,-0.0041,0.0012,-0.0022,-24.2540,3.7300,-40.8146,
7.8950,0.1948,-0.0318,1.0109,0.0197,0.0219,0.0046,-0.0023,0.0037,0.0003,-24.2540,3.7300,-40.8146,
7.8960,0.1952,-0.0305,1.0092,0.0197,0.0219,0.0046,-0.0023,0.0037,0.0003,-24.2540,3.7300,-40.8146,
7.8960,0.1956,-0.0294,1.0123,0.0197,0.0219,0.0046,-0.0023,0.0037,0.0003,-24.2540,3.7300,-40.8146,
7.9430,0.1960,-0.0298,1.0115,0.0197,0.0219,0.0046,-0.0023,0.0037,0.0003,-24.2540,3.7300,-40.8146,
7.9450,0.1960,-0.0298,1.0115,0.0197,0.0219,0.0046,-0.0023,0.0037,0.0003,-24.2190,3.7607,-40.7744,
7.9470,0.1964,-0.0311,1.0174,0.0197,0.0219,0.0046,-0.0023,0.0037,0.0003,-24.2190,3.7607,-40.7744,
7.9480,0.1964,-0.0311,1.0174,0.0197,0.0219,0.0046,-0.0020,-0.0034,0.0012,-24.2190,3.7607,-40.7744,
7.9540,0.1958,-0.0320,1.0135,0.0197,0.0219,0.0046,-0.0020,-0.0034,0.0012,-24.2190,3.7607,-40.7744,
7.9550,0.1958,-0.0320,1.0135,0.0197,0.0219,0.0046,-0.0017,-0.0061,-0.0013,-24.2190,3.7607,-40.7744,
7.9550,0.1958,-0.0320,1.0135,-0.0159,0.0156,-0.0082,-0.0017,-0.0061,-0.0013,-24.2190,3.7607,-40.7744,
7.9750,0.1946,-0.0314,1.0125,-0.0159,0.0156,-0.0082,-0.0017,-0.0061,-0.0013,-24.2190,3.7607,-40.7744,
8.0020,0.1982,-0.0288,1.0037,-0.0159,0.0156,-0.0082,-0.0017,-0.0061,-0.0013,-24.2190,3.7607,-40.7744,
8.0030,0.1982,-0.0288,1.0037,-0.0159,0.0156,-0.0082,-0.0005,-0.0125,-0.0019,-24.2190,3.7607,-40.7744,
8.0040,0.1982,-0.0288,1.0037,-0.0159,0.0156,-0.0082,-0.0005,-0.0125,-0.0019,-24.2453,3.7680,-40.7692,
8.0320,0.1982,-0.0288,1.0037,-0.0129,0.0111,0.0187,-0.0005,-0.0125,-0.0019,-24.2453,3.7680,-40.7692,
8.0340,0.1982,-0.0288,1.0037,-0.0129,0.0111,0.0187,-0.0041,0.0006,0.0006,-24.2453,3.7680,-40.7692,
8.0370,0.1989,-0.0278,1.0092,-0.0129,0.0111,0.0187,-0.0041,0.0006,0.0006,-24.2453,3.7680,-40.7692,
8.0370,0.1962,-0.0306,1.0141,-0.0129,0.0111,0.0187,-0.0041,0.0006,0.0006,-24.2453,3.7680,-40.7692,
8.0620,0.1948,-0.0304,1.0113,-0.0129,0.0111,0.0187,-0.0041,0.0006,0.0006,-24.2453,3.7680,-40.7692,
8.0630,0.1948,-0.0304,1.0113,-0.0129,0.0111,0.0187,-0.0041,0.0006,0.0006,-24.2592,3.7617,-40.7420,
8.0890,0.1948,-0.0304,1.0113,-0.0129,0.0111,0.0187,-0.0002,-0.0052,-0.0003,-24.2592,3.7617,-40.7420,
8.0900,0.1957,-0.0310,1.0124,-0.0129,0.0111,0.0187,-0.0002,-0.0052,-0.0003,-24.2592,3.7617,-40.7420,
8.0910,0.1960,-0.0290,1.0159,-0.0129,0.0111,0.0187,-0.0002,-0.0052,-0.0003,-24.2592,3.7617,-40.7420,
8.0910,0.1960,-0.0290,1.0159,-0.0031,0.0259,-0.0164,-0.0002,-0.0052,-0.0003,-24.2592,3.7617,-40.7420,
8.1090,0.1975,-0.0284,1.0142,-0.0031,0.0259,-0.0164,-0.0002,-0.0052,-0.0003,-24.2592,3.7617,-40.7420,
8.1100,0.1975,-0.0284,1.0142,-0.0031,0.0259,-0.0164,0.0032,-0.0079,0.0003,-24.2592,3.7617,-40.7420,
8.1420,0.1975,-0.0284,1.0142,-0.0031,0.0259,-0.0164,0.0032,-0.0079,0.0003,-24.3102,3.7580,-40.7579,
8.1440,0.1975,-0.0289,1.0123,-0.0031,0.0259,-0.0164,0.0032,-0.0079,0.0003,-24.3102,3.7580,-40.7579,
8.1670,0.1975,-0.0289,1.0123,-0.0209,0.0179,0.0195,0.0032,-0.0079,0.0003,-24.3102,3.7580,-40.7579,
8.1690,0.1975,-0.0289,1.0123,-0.0209,0.0179,0.0195,-0.0026,-0.0083,-0.0000,-24.3102,3.7580,-40.7579,
8.1690,0.1984,-0.0298,1.0133,-0.0209,0.0179,0.0195,-0.0026,-0.0083,-0.0000,-24.3102,3.7580,-40.7579,
8.1700,0.1976,-0.0307,1.0126,-0.0209,0.0179,0.0195,-0.0026,-0.0083,-0.0000,-24.3102,3.7580,-40.7579,
8.2010,0.1976,-0.0307,1.0126,-0.0209,0.0179,0.0195,-0.0026,-0.0083,-0.0000,-24.3367,3.7666,-40.7578,
8.2030,0.1976,-0.0307,1.0126,-0.0209,0.0179,0.0195,-0.0011,-0.0076,0.0006,-24.3367,3.7666,-40.7578,
8.2040,0.1976,-0.0299,1.0093,-0.0209,0.0179,0.0195,-0.0011,-0.0076,0.0006,-24.3367,3.7666,-40.7578,
8.2270,0.1965,-0.0298,1.0095,-0.0209,0.0179,0.0195,-0.0011,-0.0076,0.0006,-24.3367,3.7666,-40.7578,
8.2280,0.1965,-0.0298,1.0095,-0.0209,0.0179,0.0195,-0.0026,-0.0055,0.0009,-24.3367,3.7666,-40.7578,
8.2280,0.1965,-0.0298,1.0095,-0.0039,0.0201,0.0104,-0.0026,-0.0055,0.0009,-24.3367,3.7666,-40.7578,
8.2290,0.1979,-0.0301,1.0101,-0.0039,0.0201,0.0104,-0.0026,-0.0055,0.0009,-24.3367,3.7666,-40.7578,
8.2610,0.1979,-0.0301,1.0101,-0.0039,0.0201,0.0104,-0.0026,-0.0055,0.0009,-24.3620,3.7707,-40.7390,
8.2630,0.1989,-0.0321,1.0092,-0.0039,0.0201,0.0104,-0.0026,-0.0055,0.0009,-24.3620,3.7707,-40.7390,
8.3040,0.1989,-0.0321,1.0092,-0.0039,0.0201,0.0104,-0.0029,0.0003,0.0006,-24.3620,3.7707,-40.7390,
8.3050,0.1989,-0.0321,1.0092,-0.0058,0.0140,-0.0174,-0.0029,0.0003,0.0006,-24.3620,3.7707,-40.7390,
8.3060,0.1976,-0.0305,1.0129,-0.0058,0.0140,-0.0174,-0.0029,0.0003,0.0006,-24.3620,3.7707,-40.7390,
8.3070,0.1976,-0.0296,1.0114,-0.0058,0.0140,-0.0174,-0.0029,0.0003,0.0006,-24.3620,3.7707,-40.7390,
8.3070,0.1974,-0.0300,1.0117,-0.0058,0.0140,-0.0174,-0.0029,0.0003,0.0006,-24.3620,3.7707,-40.7390,
8.3080,0.1974,-0.0300,1.0117,-0.0058,0.0140,-0.0174,-0.0032,-0.0006,-0.0013,-24.3620,3.7707,-40.7390,
8.3420,0.1968,-0.0301,1.0139,-0.0058,0.0140,-0.0174,-0.0032,-0.0006,-0.0013,-24.3620,3.7707,-40.7390,
8.3430,0.1968,-0.0301,1.0139,-0.0058,0.0140,-0.0174,-0.0032,-0.0006,-0.0013,-24.4214,3.7428,-40.7295,
8.3630,0.1968,-0.0301,1.0139,-0.0082,0.0153,0.0019,-0.0032,-0.0006,-0.0013,-24.4214,3.7428,-40.7295,
8.3650,0.1974,-0.0292,1.0120,-0.0082,0.0153,0.0019,-0.0032,-0.0006,-0.0013,-24.4214,3.7428,-40.7295,
8.3650,0.1981,-0.0284,1.0108,-0.0082,0.0153,0.0019,-0.0032,-0.0006,-0.0013,-24.4214,3.7428,-40.7295,
8.3650,0.1981,-0.0284,1.0108,-0.0082,0.0153,0.0019,-0.0063,-0.0079,-0.0016,-24.4214,3.7428,-40.7295,
8.4030,0.1993,-0.0296,1.0122,-0.0082,0.0153,0.0019,-0.0063,-0.0079,-0.0016,-24.4214,3.7428,-40.7295,
8.4040,0.2008,-0.0299,1.0120,-0.0082,0.0153,0.0019,-0.0063,-0.0079,-0.0016,-24.4214,3.7428,-40.7295,
8.4050,0.2008,-0.0299,1.0120,-0.0082,0.0153,0.0019,-0.0060,-0.0061,-0.0003,-24.4214,3.7428,-40.7295,
8.4050,0.2008,-0.0299,1.0120,-0.0082,0.0153,0.0019,-0.0060,-0.0061,-0.0003,-24.4359,3.7378,-40.7735,
8.4410,0.2008,-0.0299,1.0120,-0.0090,0.0262,0.0074,-0.0060,-0.0061,-0.0003,-24.4359,3.7378,-40.7735,
8.4420,0.2004,-0.0281,1.0059,-0.0090,0.0262,0.0074,-0.0060,-0.0061,-0.0003,-24.4359,3.7378,-40.7735,
8.4430,0.1996,-0.0305,1.0130,-0.0090,0.0262,0.0074,-0.0060,-0.0061,-0.0003,-24.4359,3.7378,-40.7735,
8.4430,0.1996,-0.0305,1.0130,-0.0090,0.0262,0.0074,-0.0057,-0.0052,-0.0003,-24.4359,3.7378,-40.7735,
8.4630,0.1996,-0.0305,1.0130,-0.0090,0.0262,0.0074,-0.0045,0.0067,0.0003,-24.4359,3.7378,-40.7735,
8.4640,0.1973,-0.0311,1.0131,-0.0090,0.0262,0.0074,-0.0045,0.0067,0.0003,-24.4359,3.7378,-40.7735,
8.4640,0.1973,-0.0311,1.0131,-0.0090,0.0262,0.0074,-0.0045,0.0067,0.0003,-24.5009,3.7073,-40.7991,
8.4990,0.1973,-0.0311,1.0131,0.0086,0.0219,-0.0052,-0.0045,0.0067,0.0003,-24.5009,3.7073,-40.7991,
8.5010,0.1973,-0.0311,1.0131,0.0086,0.0219,-0.0052,-0.0029,-0.0150,-0.0003,-24.5009,3.7073,-40.7991,
8.5010,0.1963,-0.0282,1.0192,0.0086,0.0219,-0.0052,-0.0029,-0.0150,-0.0003,-24.5009,3.7073,-40.7991,
8.5020,0.1954,-0.0295,1.0227,0.0086,0.0219,-0.0052,-0.0029,-0.0150,-0.0003,-24.5009,3.7073,-40.7991,
8.5430,0.1954,-0.0295,1.0227,0.0086,0.0219,-0.0052,0.0081,-0.0202,-0.0003,-24.5009,3.7073,-40.7991,
8.5440,0.1964,-0.0318,1.0074,0.0086,0.0219,-0.0052,0.0081,-0.0202,-0.0003,-24.5009,3.7073,-40.7991,
8.5450,0.1964,-0.0318,1.0074,0.0086,0.0219,-0.0052,0.0081,-0.0202,-0.0003,-24.4986,3.7055,-40.8083,
8.5460,0.1973,-0.0312,0.9888,0.0086,0.0219,-0.0052,0.0081,-0.0202,-0.0003,-24.4986,3.7055,-40.8083,
8.5750,0.2028,-0.0263,1.0070,0.0086,0.0219,-0.0052,0.0081,-0.0202,-0.0003,-24.4986,3.7055,-40.8083,
8.5760,0.2008,-0.0243,1.0385,0.0086,0.0219,-0.0052,0.0081,-0.0202,-0.0003,-24.4986,3.7055,-40.8083,
8.5770,0.2008,-0.0243,1.0385,0.0086,0.0219,-0.0052,-0.0164,0.0061,0.0039,-24.4986,3.7055,-40.8083,
8.5770,0.2008,-0.0243,1.0385,-0.0297,0.0210,0.0508,-0.0164,0.0061,0.0039,-24.4986,3.7055,-40.8083,
8.5980,0.2018,-0.0315,0.9968,-0.0297,0.0210,0.0508,-0.0164,0.0061,0.0039,-24.4986,3.7055,-40.8083,
8.6010,0.2018,-0.0315,0.9968,-0.0297,0.0210,0.0508,-0.0164,0.0061,0.0039,-24.5006,3.7359,-40.8036,
8.6370,0.2018,-0.0315,0.9968,-0.0297,0.0210,0.0508,0.0007,0.0040,0.0012,-24.5006,3.7359,-40.8036,
8.6380,0.1940,-0.0318,1.0032,-0.0297,0.0210,0.0508,0.0007,0.0040,0.0012,-24.5006,3.7359,-40.8036,
8.6380,0.1949,-0.0321,1.0294,-0.0297,0.0210,0.0508,0.0007,0.0040,0.0012,-24.5006,3.7359,-40.8036,
8.6390,0.1949,-0.0321,1.0294,0.0041,0.0340,-0.0090,0.0007,0.0040,0.0012,-24.5006,3.7359,-40.8036,
8.6620,0.1949,-0.0321,1.0294,0.0041,0.0340,-0.0090,-0.0008,-0.0107,0.0021,-24.5006,3.7359,-40.8036,
8.6640,0.1927,-0.0305,1.0140,0.0041,0.0340,-0.0090,-0.0008,-0.0107,0.0021,-24.5006,3.7359,-40.8036,
8.6640,0.1927,-0.0305,1.0140,0.0041,0.0340,-0.0090,-0.0008,-0.0107,0.0021,-24.5026,3.7231,-40.8049,
8.7080,0.1968,-0.0303,1.0146,0.0041,0.0340,-0.0090,-0.0008,-0.0107,0.0021,-24.5026,3.7231,-40.8049,
8.7090,0.1968,-0.0303,1.0146,0.0041,0.0340,-0.0090,-0.0014,-0.0232,0.0003,-24.5026,3.7231,-40.8049,
8.7100,0.2009,-0.0283,1.0095,0.0041,0.0340,-0.0090,-0.0014,-0.0232,0.0003,-24.5026,3.7231,-40.8049,
8.7160,0.2047,-0.0309,1.0128,0.0041,0.0340,-0.0090,-0.0014,-0.0232,0.0003,-24.5026,3.7231,-40.8049,
8.7170,0.2047,-0.0309,1.0128,-0.0398,0.0002,-0.0051,-0.0014,-0.0232,0.0003,-24.5026,3.7231,-40.8049,
8.7410,0.2045,-0.0303,1.0092,-0.0398,0.0002,-0.0051,-0.0014,-0.0232,0.0003,-24.5026,3.7231,-40.8049,
8.7430,0.2045,-0.0303,1.0092,-0.0398,0.0002,-0.0051,-0.0072,-0.0131,-0.0025,-24.5026,3.7231,-40.8049,
8.7430,0.2045,-0.0303,1.0092,-0.0398,0.0002,-0.0051,-0.0072,-0.0131,-0.0025,-24.4899,3.7223,-40.7779,
8.7730,0.2045,-0.0303,1.0092,-0.0081,0.0190,0.0083,-0.0072,-0.0131,-0.0025,-24.4899,3.7223,-40.7779,
8.7760,0.2045,-0.0303,1.0092,-0.0081,0.0190,0.0083,-0.0041,-0.0025,-0.0016,-24.4899,3.7223,-40.7779,
8.7760,0.2017,-0.0299,1.0104,-0.0081,0.0190,0.0083,-0.0041,-0.0025,-0.0016,-24.4899,3.7223,-40.7779,
8.7760,0.2012,-0.0312,1.0112,-0.0081,0.0190,0.0083,-0.0041,-0.0025,-0.0016,-24.4899,3.7223,-40.7779,
8.8040,0.2012,-0.0305,1.0098,-0.0081,0.0190,0.0083,-0.0041,-0.0025,-0.0016,-24.4899,3.7223,-40.7779,
8.8050,0.2012,-0.0305,1.0098,-0.0081,0.0190,0.0083,-0.0041,-0.0025,-0.0016,-24.4886,3.7194,-40.7589,
8.8420,0.2012,-0.0305,1.0098,-0.0081,0.0190,0.0083,-0.0035,-0.0031,0.0006,-24.4886,3.7194,-40.7589,
8.8440,0.2004,-0.0292,1.0117,-0.0081,0.0190,0.0083,-0.0035,-0.0031,0.0006,-24.4886,3.7194,-40.7589,
8.8440,0.2008,-0.0288,1.0126,-0.0081,0.0190,0.0083,-0.0035,-0.0031,0.0006,-24.4886,3.7194,-40.7589,
8.8500,0.2008,-0.0288,1.0126,-0.0081,0.0190,0.0083,-0.0020,-0.0028,-0.0000,-24.4886,3.7194,-40.7589,
8.8510,0.2008,-0.0288,1.0126,0.0125,0.0133,-0.0083,-0.0020,-0.0028,-0.0000,-24.4886,3.7194,-40.7589,
8.8520,0.1991,-0.0304,1.0181,0.0125,0.0133,-0.0083,-0.0020,-0.0028,-0.0000,-24.4886,3.7194,-40.7589,
8.8610,0.1991,-0.0304,1.0181,0.0125,0.0133,-0.0083,-0.0020,-0.0028,-0.0000,-24.4664,3.7349,-40.7339,
8.9090,0.1990,-0.0309,1.0150,0.0125,0.0133,-0.0083,-0.0020,-0.0028,-0.0000,-24.4664,3.7349,-40.7339,
8.9110,0.1990,-0.0309,1.0150,0.0125,0.0133,-0.0083,0.0001,-0.0098,-0.0031,-24.4664,3.7349,-40.7339,
8.9120,0.1990,-0.0306,1.0096,0.0125,0.0133,-0.0083,0.0001,-0.0098,-0.0031,-24.4664,3.7349,-40.7339,
8.9120,0.2026,-0.0282,1.0060,0.0125,0.0133,-0.0083,0.0001,-0.0098,-0.0031,-24.4664,3.7349,-40.7339,
8.9130,0.2026,-0.0282,1.0060,-0.0127,0.0200,0.0215,0.0001,-0.0098,-0.0031,-24.4664,3.7349,-40.7339,
8.9430,0.2040,-0.0265,1.0092,-0.0127,0.0200,0.0215,0.0001,-0.0098,-0.0031,-24.4664,3.7349,-40.7339,
8.9440,0.2040,-0.0265,1.0092,-0.0127,0.0200,0.0215,-0.0051,-0.0107,-0.0025,-24.4664,3.7349,-40.7339,
8.9450,0.2040,-0.0265,1.0092,-0.0127,0.0200,0.0215,-0.0051,-0.0107,-0.0025,-24.4984,3.7135,-40.6828,
8.9780,0.2040,-0.0265,1.0092,-0.0127,0.0200,0.0215,-0.0066,-0.0009,0.0006,-24.4984,3.7135,-40.6828,
8.9790,0.2008,-0.0303,1.0109,-0.0127,0.0200,0.0215,-0.0066,-0.0009,0.0006,-24.4984,3.7135,-40.6828,
8.9800,0.1980,-0.0303,1.0141,-0.0127,0.0200,0.0215,-0.0066,-0.0009,0.0006,-24.4984,3.7135,-40.6828,
8.9870,0.1997,-0.0289,1.0141,-0.0127,0.0200,0.0215,-0.0066,-0.0009,0.0006,-24.4984,3.7135,-40.6828,
8.9880,0.1997,-0.0289,1.0141,-0.0087,0.0239,-0.0184,-0.0066,-0.0009,0.0006,-24.4984,3.7135,-40.6828,
9.0020,0.1997,-0.0289,1.0141,-0.0087,0.0239,-0.0184,-0.0066,-0.0009,0.0006,-24.4641,3.7290,-40.6491,
9.0420,0.2007,-0.0294,1.0119,-0.0087,0.0239,-0.0184,-0.0066,-0.0009,0.0006,-24.4641,3.7290,-40.6491,
9.0430,0.2015,-0.0298,1.0191,-0.0087,0.0239,-0.0184,-0.0066,-0.0009,0.0006,-24.4641,3.7290,-40.6491,
9.0440,0.2015,-0.0298,1.0191,-0.0087,0.0239,-0.0184,-0.0020,-0.0119,0.0006,-24.4641,3.7290,-40.6491,
9.0450,0.2030,-0.0299,1.0118,-0.0087,0.0239,-0.0184,-0.0020,-0.0119,0.0006,-24.4641,3.7290,-40.6491,
9.0450,0.2030,-0.0299,1.0118,-0.0087,0.0239,-0.0184,0.0035,-0.0089,0.0009,-24.4641,3.7290,-40.6491,
9.0460,0.2030,-0.0299,1.0118,-0.0208,0.0192,0.0231,0.0035,-0.0089,0.0009,-24.4641,3.7290,-40.6491,
9.0620,0.2030,-0.0299,1.0118,-0.0208,0.0192,0.0231,0.0035,-0.0089,0.0009,-24.4902,3.7209,-40.6066,
9.0970,0.2030,-0.0299,1.0118,-0.0208,0.0192,0.0231,-0.0002,-0.0076,0.0009,-24.4902,3.7209,-40.6066,
9.0990,0.2029,-0.0300,1.0101,-0.0208,0.0192,0.0231,-0.0002,-0.0076,0.0009,-24.4902,3.7209,-40.6066,
9.0990,0.2023,-0.0305,1.0128,-0.0208,0.0192,0.0231,-0.0002,-0.0076,0.0009,-24.4902,3.7209,-40.6066,
9.1080,0.2021,-0.0298,1.0108,-0.0208,0.0192,0.0231,-0.0002,-0.0076,0.0009,-24.4902,3.7209,-40.6066,
9.1230,0.2012,-0.0295,1.0098,-0.0208,0.0192,0.0231,-0.0002,-0.0076,0.0009,-24.4902,3.7209,-40.6066,
9.1240,0.2012,-0.0295,1.0098,-0.0208,0.0192,0.0231,0.0017,-0.0086,-0.0006,-24.4902,3.7209,-40.6066,
9.1250,0.2012,-0.0295,1.0098,-0.0074,0.0133,0.0218,0.0017,-0.0086,-0.0006,-24.4902,3.7209,-40.6066,
9.1420,0.2012,-0.0295,1.0098,-0.0074,0.0133,0.0218,0.0017,-0.0086,-0.0006,-24.5458,3.6896,-40.6190,
9.1770,0.2017,-0.0292,1.0124,-0.0074,0.0133,0.0218,0.0017,-0.0086,-0.0006,-24.5458,3.6896,-40.6190,
9.1780,0.2035,-0.0290,1.0119,-0.0074,0.0133,0.0218,0.0017,-0.0086,-0.0006,-24.5458,3.6896,-40.6190,
9.1780,0.2035,-0.0290,1.0119,-0.0074,0.0133,0.0218,0.0035,-0.0089,-0.0000,-24.5458,3.6896,-40.6190,
9.1810,0.2032,-0.0287,1.0082,-0.0074,0.0133,0.0218,0.0035,-0.0089,-0.0000,-24.5458,3.6896,-40.6190,
9.1820,0.2032,-0.0287,1.0082,-0.0097,0.0100,-0.0003,0.0035,-0.0089,-0.0000,-24.5458,3.6896,-40.6190,
9.2020,0.2036,-0.0294,1.0120,-0.0097,0.0100,-0.0003,0.0035,-0.0089,-0.0000,-24.5458,3.6896,-40.6190,
9.2030,0.2036,-0.0294,1.0120,-0.0097,0.0100,-0.0003,-0.0008,-0.0064,0.0012,-24.5458,3.6896,-40.6190,
9.2030,0.2036,-0.0294,1.0120,-0.0097,0.0100,-0.0003,-0.0008,-0.0064,0.0012,-24.5536,3.7093,-40.6014,
9.2440,0.2026,-0.0301,1.0142,-0.0097,0.0100,-0.0003,-0.0008,-0.0064,0.0012,-24.5536,3.7093,-40.6014,
9.2450,0.2026,-0.0301,1.0142,-0.0097,0.0100,-0.0003,0.0007,-0.0086,-0.0000,-24.5536,3.7093,-40.6014,
9.2460,0.2015,-0.0294,1.0136,-0.0097,0.0100,-0.0003,0.0007,-0.0086,-0.0000,-24.5536,3.7093,-40.6014,
9.2600,0.2029,-0.0276,1.0092,-0.0097,0.0100,-0.0003,0.0007,-0.0086,-0.0000,-24.5536,3.7093,-40.6014,
9.2610,0.2029,-0.0276,1.0092,-0.0079,0.0178,-0.0040,0.0007,-0.0086,-0.0000,-24.5536,3.7093,-40.6014,
9.2620,0.2029,-0.0276,1.0092,-0.0079,0.0178,-0.0040,0.0007,-0.0086,-0.0000,-24.5574,3.7009,-40.6231,
9.3080,0.2039,-0.0276,1.0119,-0.0079,0.0178,-0.0040,0.0007,-0.0086,-0.0000,-24.5574,3.7009,-40.6231,
9.3100,0.2045,-0.0283,1.0133,-0.0079,0.0178,-0.0040,0.0007,-0.0086,-0.0000,-24.5574,3.7009,-40.6231,
9.3100,0.2045,-0.0283,1.0133,-0.0079,0.0178,-0.0040,-0.0035,-0.0122,0.0006,-24.5574,3.7009,-40.6231,
9.3180,0.2045,-0.0267,1.0096,-0.0079,0.0178,-0.0040,-0.0035,-0.0122,0.0006,-24.5574,3.7009,-40.6231,
9.3190,0.2045,-0.0267,1.0096,-0.0079,0.0178,-0.0040,-0.0041,-0.0083,-0.0000,-24.5574,3.7009,-40.6231,
9.3200,0.2045,-0.0267,1.0096,-0.0144,0.0162,0.0165,-0.0041,-0.0083,-0.0000,-24.5574,3.7009,-40.6231,
9.3420,0.2063,-0.0266,1.0064,-0.0144,0.0162,0.0165,-0.0041,-0.0083,-0.0000,-24.5574,3.7009,-40.6231,
9.3430,0.2063,-0.0266,1.0064,-0.0144,0.0162,0.0165,-0.0041,-0.0083,-0.0000,-24.5633,3.6981,-40.6345,
9.3760,0.2053,-0.0300,1.0113,-0.0144,0.0162,0.0165,-0.0041,-0.0083,-0.0000,-24.5633,3.6981,-40.6345,
9.3780,0.2053,-0.0300,1.0113,-0.0144,0.0162,0.0165,-0.0038,-0.0049,-0.0003,-24.5633,3.6981,-40.6345,
9.3980,0.2053,-0.0300,1.0113,0.0036,0.0330,-0.0025,-0.0038,-0.0049,-0.0003,-24.5633,3.6981,-40.6345,
9.3990,0.2053,-0.0300,1.0113,0.0036,0.0330,-0.0025,-0.0057,-0.0043,0.0006,-24.5633,3.6981,-40.6345,
9.4000,0.2036,-0.0304,1.0090,0.0036,0.0330,-0.0025,-0.0057,-0.0043,0.0006,-24.5633,3.6981,-40.6345,
9.4000,0.2014,-0.0285,1.0244,0.0036,0.0330,-0.0025,-0.0057,-0.0043,0.0006,-24.5633,3.6981,-40.6345,
9.4020,0.2014,-0.0285,1.0244,0.0036,0.0330,-0.0025,-0.0057,-0.0043,0.0006,-24.5878,3.6904,-40.6605,
9.4430,0.2014,-0.0285,1.0244,0.0036,0.0330,-0.0025,0.0050,-0.0266,-0.0003,-24.5878,3.6904,-40.6605,
9.4450,0.2009,-0.0290,1.0174,0.0036,0.0330,-0.0025,0.0050,-0.0266,-0.0003,-24.5878,3.6904,-40.6605,
9.4460,0.2051,-0.0316,1.0025,0.0036,0.0330,-0.0025,0.0050,-0.0266,-0.0003,-24.5878,3.6904,-40.6605,
9.4570,0.2051,-0.0316,1.0025,-0.0162,0.0133,0.0267,0.0050,-0.0266,-0.0003,-24.5878,3.6904,-40.6605,
9.4590,0.2070,-0.0267,0.9809,-0.0162,0.0133,0.0267,0.0050,-0.0266,-0.0003,-24.5878,3.6904,-40.6605,
9.4630,0.2070,-0.0267,0.9809,-0.0162,0.0133,0.0267,0.0050,-0.0266,-0.0003,-24.5933,3.7116,-40.6370,
9.5080,0.2070,-0.0267,0.9809,-0.0162,0.0133,0.0267,-0.0112,0.0006,0.0018,-24.5933,3.7116,-40.6370,
9.5090,0.2084,-0.0250,1.0279,-0.0162,0.0133,0.0267,-0.0112,0.0006,0.0018,-24.5933,3.7116,-40.6370,
9.5100,0.2105,-0.0244,1.0195,-0.0162,0.0133,0.0267,-0.0112,0.0006,0.0018,-24.5933,3.7116,-40.6370,
9.5340,0.2105,-0.0244,1.0195,-0.0022,0.0194,-0.0837,-0.0112,0.0006,0.0018,-24.5933,3.7116,-40.6370,
9.5350,0.2105,-0.0244,1.0195,-0.0022,0.0194,-0.0837,0.0056,-0.0061,-0.0006,-24.5933,3.7116,-40.6370,
9.5360,0.2059,-0.0311,0.9935,-0.0022,0.0194,-0.0837,0.0056,-0.0061,-0.0006,-24.5933,3.7116,-40.6370,
9.5360,0.2031,-0.0278,1.0109,-0.0022,0.0194,-0.0837,0.0056,-0.0061,-0.0006,-24.5933,3.7116,-40.6370,
9.5420,0.2031,-0.0278,1.0109,-0.0022,0.0194,-0.0837,0.0056,-0.0061,-0.0006,-24.6283,3.6985,-40.6600,
9.5750,0.1998,-0.0299,1.0277,-0.0022,0.0194,-0.0837,0.0056,-0.0061,-0.0006,-24.6283,3.6985,-40.6600,
9.5760,0.1995,-0.0281,1.0019,-0.0022,0.0194,-0.0837,0.0056,-0.0061,-0.0006,-24.6283,3.6985,-40.6600,
9.5770,0.1995,-0.0281,1.0019,-0.0022,0.0194,-0.0837,-0.0103,-0.0052,0.0012,-24.6283,3.6985,-40.6600,
9.5930,0.2042,-0.0309,1.0124,-0.0022,0.0194,-0.0837,-0.0103,-0.0052,0.0012,-24.6283,3.6985,-40.6600,
9.5950,0.2042,-0.0309,1.0124,-0.0022,0.0194,-0.0837,-0.0063,-0.0327,-0.0016,-24.6283,3.6985,-40.6600,
9.5950,0.2042,-0.0309,1.0124,-0.0054,0.0332,0.0346,-0.0063,-0.0327,-0.0016,-24.6283,3.6985,-40.6600,
9.6020,0.2042,-0.0309,1.0124,-0.0054,0.0332,0.0346,-0.0063,-0.0327,-0.0016,-24.6252,3.6874,-40.6929,
9.6420,0.2042,-0.0309,1.0124,-0.0054,0.0332,0.0346,-0.0069,-0.0296,-0.0019,-24.6252,3.6874,-40.6929,
9.6430,0.2094,-0.0303,1.0102,-0.0054,0.0332,0.0346,-0.0069,-0.0296,-0.0019,-24.6252,3.6874,-40.6929,
9.6430,0.2127,-0.0284,1.0098,-0.0054,0.0332,0.0346,-0.0069,-0.0296,-0.0019,-24.6252,3.6874,-40.6929,
9.6620,0.2127,-0.0284,1.0098,-0.0054,0.0332,0.0346,-0.0069,-0.0296,-0.0019,-24.6466,3.6773,-40.6491,
9.6640,0.2118,-0.0289,1.0080,-0.0054,0.0332,0.0346,-0.0069,-0.0296,-0.0019,-24.6466,3.6773,-40.6491,
9.6700,0.2118,-0.0289,1.0080,-0.0605,0.0117,0.0344,-0.0069,-0.0296,-0.0019,-24.6466,3.6773,-40.6491,
9.6710,0.2118,-0.0289,1.0080,-0.0605,0.0117,0.0344,-0.0087,-0.0269,-0.0028,-24.6466,3.6773,-40.6491,
9.6710,0.2086,-0.0309,1.0082,-0.0605,0.0117,0.0344,-0.0087,-0.0269,-0.0028,-24.6466,3.6773,-40.6491,
9.7090,0.2083,-0.0311,1.0075,-0.0605,0.0117,0.0344,-0.0087,-0.0269,-0.0028,-24.6466,3.6773,-40.6491,
9.7100,0.2094,-0.0296,1.0080,-0.0605,0.0117,0.0344,-0.0087,-0.0269,-0.0028,-24.6466,3.6773,-40.6491,
9.7110,0.2094,-0.0296,1.0080,-0.0605,0.0117,0.0344,-0.0057,-0.0196,-0.0006,-24.6466,3.6773,-40.6491,
9.7290,0.2091,-0.0294,1.0117,-0.0605,0.0117,0.0344,-0.0057,-0.0196,-0.0006,-24.6466,3.6773,-40.6491,
9.7300,0.2091,-0.0294,1.0117,0.0136,0.0159,-0.0091,-0.0057,-0.0196,-0.0006,-24.6466,3.6773,-40.6491,
9.7410,0.2091,-0.0294,1.0117,0.0136,0.0159,-0.0091,-0.0057,-0.0196,-0.0006,-24.6735,3.6791,-40.6232,
9.7750,0.2084,-0.0278,1.0093,0.0136,0.0159,-0.0091,-0.0057,-0.0196,-0.0006,-24.6735,3.6791,-40.6232,
9.7760,0.2094,-0.0288,1.0148,0.0136,0.0159,-0.0091,-0.0057,-0.0196,-0.0006,-24.6735,3.6791,-40.6232,
9.7770,0.2094,-0.0288,1.0148,0.0136,0.0159,-0.0091,-0.0020,-0.0156,-0.0010,-24.6735,3.6791,-40.6232,
9.8020,0.2086,-0.0298,1.0117,0.0136,0.0159,-0.0091,-0.0020,-0.0156,-0.0010,-24.6735,3.6791,-40.6232,
9.8030,0.2086,-0.0298,1.0117,0.0136,0.0159,-0.0091,-0.0002,-0.0199,-0.0025,-24.6735,3.6791,-40.6232,
9.8030,0.2086,-0.0298,1.0117,0.0136,0.0159,-0.0091,-0.0002,-0.0199,-0.0025,-24.7265,3.6745,-40.5840,
9.8090,0.2086,-0.0298,1.0117,-0.0216,0.0124,-0.0025,-0.0002,-0.0199,-0.0025,-24.7265,3.6745,-40.5840,
9.8100,0.2101,-0.0283,1.0052,-0.0216,0.0124,-0.0025,-0.0002,-0.0199,-0.0025,-24.7265,3.6745,-40.5840,
9.8430,0.2101,-0.0283,1.0052,-0.0216,0.0124,-0.0025,-0.0023,-0.0257,-0.0013,-24.7265,3.6745,-40.5840,
9.8440,0.2130,-0.0268,1.0042,-0.0216,0.0124,-0.0025,-0.0023,-0.0257,-0.0013,-24.7265,3.6745,-40.5840,
9.8620,0.2130,-0.0268,1.0042,-0.0216,0.0124,-0.0025,-0.0023,-0.0257,-0.0013,-24.7533,3.6841,-40.5491,
9.8640,0.2130,-0.0263,1.0062,-0.0216,0.0124,-0.0025,-0.0023,-0.0257,-0.0013,-24.7533,3.6841,-40.5491,
9.8640,0.2112,-0.0277,1.0057,-0.0216,0.0124,-0.0025,-0.0023,-0.0257,-0.0013,-24.7533,3.6841,-40.5491,
9.8650,0.2112,-0.0277,1.0057,-0.0216,0.0124,-0.0025,-0.0020,-0.0083,-0.0000,-24.7533,3.6841,-40.5491,
9.8650,0.2112,-0.0277,1.0057,-0.0219,0.0203,0.0110,-0.0020,-0.0083,-0.0000,-24.7533,3.6841,-40.5491,
9.9080,0.2112,-0.0277,1.0057,-0.0219,0.0203,0.0110,-0.0081,-0.0226,0.0003,-24.7533,3.6841,-40.5491,
9.9090,0.2090,-0.0276,1.0078,-0.0219,0.0203,0.0110,-0.0081,-0.0226,0.0003,-24.7533,3.6841,-40.5491,
9.9100,0.2098,-0.0293,1.0063,-0.0219,0.0203,0.0110,-0.0081,-0.0226,0.0003,-24.7533,3.6841,-40.5491,
9.9430,0.2098,-0.0293,1.0063,-0.0219,0.0203,0.0110,-0.0081,-0.0226,0.0003,-24.7764,3.6886,-40.5030,
9.9450,0.2119,-0.0278,1.0122,-0.0219,0.0203,0.0110,-0.0081,-0.0226,0.0003,-24.7764,3.6886,-40.5030,
9.9450,0.2156,-0.0296,1.0131,-0.0219,0.0203,0.0110,-0.0081,-0.0226,0.0003,-24.7764,3.6886,-40.5030,
9.9460,0.2156,-0.0296,1.0131,-0.0219,0.0203,0.0110,-0.0017,-0.0165,-0.0000,-24.7764,3.6886,-40.5030,
9.9460,0.2156,-0.0296,1.0131,-0.0084,0.0365,-0.0298,-0.0017,-0.0165,-0.0000,-24.7764,3.6886,-40.5030,
9.9760,0.2166,-0.0298,1.0071,-0.0084,0.0365,-0.0298,-0.0017,-0.0165,-0.0000,-24.7764,3.6886,-40.5030,
10.0020,0.2166,-0.0298,1.0071,-0.0084,0.0365,-0.0298,0.0007,-0.0110,-0.0000,-24.7764,3.6886,-40.5030,
10.0030,0.2164,-0.0305,1.0087,-0.0084,0.0365,-0.0298,0.0007,-0.0110,-0.0000,-24.7764,3.6886,-40.5030,
10.0030,0.2160,-0.0288,1.0081,-0.0084,0.0365,-0.0298,0.0007,-0.0110,-0.0000,-24.7764,3.6886,-40.5030,
10.0040,0.2160,-0.0288,1.0081,-0.0146,0.0173,0.0159,0.0007,-0.0110,-0.0000,-24.7764,3.6886,-40.5030,
10.0050,0.2160,-0.0288,1.0081,-0.0146,0.0173,0.0159,0.0007,-0.0110,-0.0000,-24.8039,3.6793,-40.4731,
10.0420,0.2145,-0.0285,1.0051,-0.0146,0.0173,0.0159,0.0007,-0.0110,-0.0000,-24.8039,3.6793,-40.4731,
10.0430,0.2140,-0.0279,1.0046,-0.0146,0.0173,0.0159,0.0007,-0.0110,-0.0000,-24.8039,3.6793,-40.4731,
10.0440,0.2140,-0.0279,1.0046,-0.0146,0.0173,0.0159,-0.0008,-0.0110,-0.0006,-24.8039,3.6793,-40.4731,
10.0620,0.2140,-0.0279,1.0046,-0.0146,0.0173,0.0159,-0.0017,-0.0079,0.0003,-24.8039,3.6793,-40.4731,
10.0640,0.2141,-0.0284,1.0090,-0.0146,0.0173,0.0159,-0.0017,-0.0079,0.0003,-24.8039,3.6793,-40.4731,
10.0650,0.2141,-0.0284,1.0090,-0.0146,0.0173,0.0159,-0.0017,-0.0079,0.0003,-24.8427,3.6975,-40.4162,
10.0800,0.2141,-0.0284,1.0090,0.0183,0.0098,-0.0054,-0.0017,-0.0079,0.0003,-24.8427,3.6975,-40.4162,
10.0810,0.2146,-0.0290,1.0076,0.0183,0.0098,-0.0054,-0.0017,-0.0079,0.0003,-24.8427,3.6975,-40.4162,
10.1080,0.2146,-0.0290,1.0076,0.0183,0.0098,-0.0054,-0.0002,-0.0067,-0.0000,-24.8427,3.6975,-40.4162,
10.1090,0.2144,-0.0285,1.0097,0.0183,0.0098,-0.0054,-0.0002,-0.0067,-0.0000,-24.8427,3.6975,-40.4162,
10.1400,0.2144,-0.0285,1.0097,-0.0030,0.0168,-0.0166,-0.0002,-0.0067,-0.0000,-24.8427,3.6975,-40.4162,
10.1420,0.2144,-0.0285,1.0097,-0.0030,0.0168,-0.0166,0.0001,-0.0049,0.0003,-24.8427,3.6975,-40.4162,
10.1430,0.2139,-0.0279,1.0120,-0.0030,0.0168,-0.0166,0.0001,-0.0049,0.0003,-24.8427,3.6975,-40.4162,
10.1430,0.2117,-0.0276,1.0078,-0.0030,0.0168,-0.0166,0.0001,-0.0049,0.0003,-24.8427,3.6975,-40.4162,
10.1440,0.2117,-0.0276,1.0078,-0.0030,0.0168,-0.0166,0.0001,-0.0049,0.0003,-24.9023,3.7158,-40.3629,
10.1760,0.2123,-0.0272,1.0070,-0.0030,0.0168,-0.0166,0.0001,-0.0049,0.0003,-24.9023,3.7158,-40.3629,
10.2020,0.2127,-0.0270,1.0126,-0.0030,0.0168,-0.0166,0.0001,-0.0049,0.0003,-24.9023,3.7158,-40.3629,
10.2030,0.2127,-0.0270,1.0126,-0.0030,0.0168,-0.0166,-0.0017,-0.0058,0.0003,-24.9023,3.7158,-40.3629,
10.2030,0.2127,-0.0270,1.0126,-0.0030,0.0168,-0.0166,-0.0017,-0.0058,0.0003,-24.9167,3.7188,-40.3542,
10.2040,0.2129,-0.0282,1.0078,-0.0030,0.0168,-0.0166,-0.0017,-0.0058,0.0003,-24.9167,3.7188,-40.3542,
10.2170,0.2129,-0.0282,1.0078,-0.0030,0.0168,-0.0166,-0.0026,-0.0162,-0.0000,-24.9167,3.7188,-40.3542,
10.2180,0.2158,-0.0278,1.0092,-0.0030,0.0168,-0.0166,-0.0026,-0.0162,-0.0000,-24.9167,3.7188,-40.3542,
10.2180,0.2158,-0.0278,1.0092,-0.0184,0.0212,0.0108,-0.0026,-0.0162,-0.0000,-24.9167,3.7188,-40.3542,
10.2420,0.2166,-0.0278,1.0112,-0.0184,0.0212,0.0108,-0.0026,-0.0162,-0.0000,-24.9167,3.7188,-40.3542,
10.2610,0.2166,-0.0278,1.0112,-0.0184,0.0212,0.0108,-0.0057,-0.0214,0.0006,-24.9167,3.7188,-40.3542,
10.2620,0.2166,-0.0278,1.0112,-0.0184,0.0212,0.0108,-0.0057,-0.0214,0.0006,-24.9808,3.7031,-40.3161,
10.2630,0.2185,-0.0273,1.0039,-0.0184,0.0212,0.0108,-0.0057,-0.0214,0.0006,-24.9808,3.7031,-40.3161,
10.2740,0.2185,-0.0273,1.0039,-0.0243,0.0254,0.0158,-0.0057,-0.0214,0.0006,-24.9808,3.7031,-40.3161,
10.2750,0.2179,-0.0300,1.0048,-0.0243,0.0254,0.0158,-0.0057,-0.0214,0.0006,-24.9808,3.7031,-40.3161,
10.3080,0.2179,-0.0300,1.0048,-0.0243,0.0254,0.0158,-0.0023,-0.0128,-0.0006,-24.9808,3.7031,-40.3161,
10.3100,0.2174,-0.0303,1.0052,-0.0243,0.0254,0.0158,-0.0023,-0.0128,-0.0006,-24.9808,3.7031,-40.3161,
10.3410,0.2174,-0.0303,1.0052,-0.0243,0.0254,0.0158,-0.0005,-0.0269,-0.0025,-24.9808,3.7031,-40.3161,
10.3420,0.2151,-0.0282,1.0250,-0.0243,0.0254,0.0158,-0.0005,-0.0269,-0.0025,-24.9808,3.7031,-40.3161,
10.3420,0.2157,-0.0304,1.0117,-0.0243,0.0254,0.0158,-0.0005,-0.0269,-0.0025,-24.9808,3.7031,-40.3161,
10.3430,0.2157,-0.0304,1.0117,-0.0243,0.0254,0.0158,-0.0005,-0.0269,-0.0025,-25.0125,3.6985,-40.2924,
10.3530,0.2177,-0.0299,0.9971,-0.0243,0.0254,0.0158,-0.0005,-0.0269,-0.0025,-25.0125,3.6985,-40.2924,
10.3530,0.2177,-0.0299,0.9971,-0.0013,0.0111,-0.0096,-0.0005,-0.0269,-0.0025,-25.0125,3.6985,-40.2924,
10.3750,0.2206,-0.0262,0.9813,-0.0013,0.0111,-0.0096,-0.0005,-0.0269,-0.0025,-25.0125,3.6985,-40.2924,
10.3770,0.2206,-0.0262,0.9813,-0.0013,0.0111,-0.0096,-0.0005,-0.0260,-0.0006,-25.0125,3.6985,-40.2924,
10.4010,0.2216,-0.0238,1.0246,-0.0013,0.0111,-0.0096,-0.0005,-0.0260,-0.0006,-25.0125,3.6985,-40.2924,
10.4030,0.2216,-0.0238,1.0246,-0.0013,0.0111,-0.0096,-0.0005,-0.0260,-0.0006,-25.0607,3.6846,-40.2972,
10.4110,0.2216,-0.0238,1.0246,-0.0128,0.0048,0.0234,-0.0005,-0.0260,-0.0006,-25.0607,3.6846,-40.2972,
10.4120,0.2216,-0.0238,1.0246,-0.0128,0.0048,0.0234,-0.0051,0.0067,0.0030,-25.0607,3.6846,-40.2972,
10.4130,0.2229,-0.0235,1.0142,-0.0128,0.0048,0.0234,-0.0051,0.0067,0.0030,-25.0607,3.6846,-40.2972,
10.4410,0.2185,-0.0298,0.9958,-0.0128,0.0048,0.0234,-0.0051,0.0067,0.0030,-25.0607,3.6846,-40.2972,
10.4620,0.2147,-0.0271,1.0057,-0.0128,0.0048,0.0234,-0.0051,0.0067,0.0030,-25.0607,3.6846,-40.2972,
10.4630,0.2147,-0.0271,1.0057,-0.0128,0.0048,0.0234,-0.0051,0.0067,0.0030,-25.0947,3.6744,-40.2752,
10.4650,0.2147,-0.0271,1.0057,-0.0128,0.0048,0.0234,0.0010,0.0131,0.0009,-25.0947,3.6744,-40.2752,
10.4900,0.2147,-0.0271,1.0057,0.0332,0.0422,-0.0152,0.0010,0.0131,0.0009,-25.0947,3.6744,-40.2752,
10.4910,0.2119,-0.0290,1.0252,0.0332,0.0422,-0.0152,0.0010,0.0131,0.0009,-25.0947,3.6744,-40.2752,
10.4910,0.2108,-0.0270,1.0004,0.0332,0.0422,-0.0152,0.0010,0.0131,0.0009,-25.0947,3.6744,-40.2752,
10.4920,0.2108,-0.0270,1.0004,0.0332,0.0422,-0.0152,-0.0011,-0.0110,-0.0000,-25.0947,3.6744,-40.2752,
10.5420,0.2108,-0.0270,1.0004,0.0332,0.0422,-0.0152,-0.0063,-0.0165,-0.0019,-25.0947,3.6744,-40.2752,
10.5430,0.2174,-0.0274,1.0069,0.0332,0.0422,-0.0152,-0.0063,-0.0165,-0.0019,-25.0947,3.6744,-40.2752,
10.5430,0.2227,-0.0271,1.0074,0.0332,0.0422,-0.0152,-0.0063,-0.0165,-0.0019,-25.0947,3.6744,-40.2752,
10.5440,0.2227,-0.0271,1.0074,0.0332,0.0422,-0.0152,-0.0063,-0.0165,-0.0019,-25.1149,3.6625,-40.2696,
10.5490,0.2244,-0.0268,1.0093,0.0332,0.0422,-0.0152,-0.0063,-0.0165,-0.0019,-25.1149,3.6625,-40.2696,
10.5490,0.2244,-0.0268,1.0093,-0.0498,0.0193,-0.0005,-0.0063,-0.0165,-0.0019,-25.1149,3.6625,-40.2696,
10.5750,0.2244,-0.0268,1.0093,-0.0498,0.0193,-0.0005,-0.0087,-0.0021,-0.0013,-25.1149,3.6625,-40.2696,
10.5760,0.2218,-0.0283,1.0095,-0.0498,0.0193,-0.0005,-0.0087,-0.0021,-0.0013,-25.1149,3.6625,-40.2696,
10.5970,0.2195,-0.0289,1.0040,-0.0498,0.0193,-0.0005,-0.0087,-0.0021,-0.0013,-25.1149,3.6625,-40.2696,
10.6020,0.2195,-0.0289,1.0040,-0.0498,0.0193,-0.0005,-0.0087,-0.0021,-0.0013,-25.1110,3.6583,-40.2498,
10.6270,0.2195,-0.0289,1.0040,0.0281,0.0271,0.0088,-0.0087,-0.0021,-0.0013,-25.1110,3.6583,-40.2498,
10.6280,0.2197,-0.0282,1.0070,0.0281,0.0271,0.0088,-0.0087,-0.0021,-0.0013,-25.1110,3.6583,-40.2498,
10.6280,0.2194,-0.0293,1.0125,0.0281,0.0271,0.0088,-0.0087,-0.0021,-0.0013,-25.1110,3.6583,-40.2498,
10.6290,0.2194,-0.0293,1.0125,0.0281,0.0271,0.0088,-0.0087,-0.0058,0.0012,-25.1110,3.6583,-40.2498,
10.6620,0.2194,-0.0293,1.0125,0.0281,0.0271,0.0088,-0.0005,-0.0064,-0.0003,-25.1110,3.6583,-40.2498,
10.6630,0.2190,-0.0301,1.0080,0.0281,0.0271,0.0088,-0.0005,-0.0064,-0.0003,-25.1110,3.6583,-40.2498,
10.6630,0.2190,-0.0301,1.0080,0.0281,0.0271,0.0088,-0.0005,-0.0064,-0.0003,-25.1422,3.6448,-40.2298,
10.6860,0.2190,-0.0301,1.0080,0.0281,0.0271,0.0088,0.0017,-0.0119,-0.0025,-25.1422,3.6448,-40.2298,
10.6870,0.2188,-0.0299,1.0092,0.0281,0.0271,0.0088,0.0017,-0.0119,-0.0025,-25.1422,3.6448,-40.2298,
10.6870,0.2178,-0.0292,1.0115,0.0281,0.0271,0.0088,0.0017,-0.0119,-0.0025,-25.1422,3.6448,-40.2298,
10.6880,0.2178,-0.0292,1.0115,-0.0001,0.0098,0.0041,0.0017,-0.0119,-0.0025,-25.1422,3.6448,-40.2298,
10.7080,0.2169,-0.0270,1.0117,-0.0001,0.0098,0.0041,0.0017,-0.0119,-0.0025,-25.1422,3.6448,-40.2298,
10.7420,0.2175,-0.0261,1.0030,-0.0001,0.0098,0.0041,0.0017,-0.0119,-0.0025,-25.1422,3.6448,-40.2298,
10.7450,0.2175,-0.0261,1.0030,-0.0001,0.0098,0.0041,0.0017,-0.0119,-0.0025,-25.1869,3.6519,-40.2548,
10.7460,0.2175,-0.0261,1.0030,-0.0001,0.0098,0.0041,-0.0008,-0.0257,-0.0031,-25.1869,3.6519,-40.2548,
10.7630,0.2227,-0.0246,1.0071,-0.0001,0.0098,0.0041,-0.0008,-0.0257,-0.0031,-25.1869,3.6519,-40.2548,
10.7650,0.2227,-0.0246,1.0071,-0.0001,0.0098,0.0041,-0.0023,-0.0131,-0.0003,-25.1869,3.6519,-40.2548,
10.7650,0.2223,-0.0256,1.0091,-0.0001,0.0098,0.0041,-0.0023,-0.0131,-0.0003,-25.1869,3.6519,-40.2548,
10.7660,0.2223,-0.0256,1.0091,-0.0232,0.0033,0.0289,-0.0023,-0.0131,-0.0003,-25.1869,3.6519,-40.2548,
10.8050,0.2223,-0.0256,1.0091,-0.0232,0.0033,0.0289,-0.0057,-0.0162,-0.0003,-25.1869,3.6519,-40.2548,
10.8060,0.2199,-0.0271,1.0019,-0.0232,0.0033,0.0289,-0.0057,-0.0162,-0.0003,-25.1869,3.6519,-40.2548,
10.8060,0.2183,-0.0272,1.0082,-0.0232,0.0033,0.0289,-0.0057,-0.0162,-0.0003,-25.1869,3.6519,-40.2548,
10.8060,0.2183,-0.0272,1.0082,-0.0232,0.0033,0.0289,-0.0057,-0.0162,-0.0003,-25.2095,3.6489,-40.2571,
10.8230,0.2183,-0.0272,1.0082,-0.0176,0.0412,-0.0037,-0.0057,-0.0162,-0.0003,-25.2095,3.6489,-40.2571,
10.8240,0.2189,-0.0274,1.0060,-0.0176,0.0412,-0.0037,-0.0057,-0.0162,-0.0003,-25.2095,3.6489,-40.2571,
10.8420,0.2208,-0.0270,1.0103,-0.0176,0.0412,-0.0037,-0.0057,-0.0162,-0.0003,-25.2095,3.6489,-40.2571,
10.8440,0.2208,-0.0270,1.0103,-0.0176,0.0412,-0.0037,-0.0051,-0.0266,-0.0000,-25.2095,3.6489,-40.2571,
10.8610,0.2208,-0.0270,1.0103,-0.0176,0.0412,-0.0037,-0.0051,-0.0266,-0.0000,-25.2246,3.6530,-40.2333,
10.8630,0.2232,-0.0273,1.0109,-0.0176,0.0412,-0.0037,-0.0051,-0.0266,-0.0000,-25.2246,3.6530,-40.2333,
10.9000,0.2250,-0.0273,1.0059,-0.0176,0.0412,-0.0037,-0.0051,-0.0266,-0.0000,-25.2246,3.6530,-40.2333,
10.9010,0.2260,-0.0278,1.0036,-0.0176,0.0412,-0.0037,-0.0051,-0.0266,-0.0000,-25.2246,3.6530,-40.2333,
10.9020,0.2260,-0.0278,1.0036,-0.0176,0.0412,-0.0037,0.0041,-0.0189,0.0003,-25.2246,3.6530,-40.2333,
10.9030,0.2260,-0.0278,1.0036,-0.0378,0.0195,-0.0062,0.0041,-0.0189,0.0003,-25.2246,3.6530,-40.2333,
10.9420,0.2260,-0.0278,1.0036,-0.0378,0.0195,-0.0062,0.0032,-0.0254,0.0009,-25.2246,3.6530,-40.2333,
10.9430,0.2255,-0.0271,1.0018,-0.0378,0.0195,-0.0062,0.0032,-0.0254,0.0009,-25.2246,3.6530,-40.2333,
10.9440,0.2238,-0.0281,1.0052,-0.0378,0.0195,-0.0062,0.0032,-0.0254,0.0009,-25.2246,3.6530,-40.2333,
10.9450,0.2238,-0.0281,1.0052,-0.0378,0.0195,-0.0062,0.0032,-0.0254,0.0009,-25.2465,3.6661,-40.1714,
10.9580,0.2238,-0.0281,1.0052,-0.0023,0.0179,0.0096,0.0032,-0.0254,0.0009,-25.2465,3.6661,-40.1714,
10.9590,0.2240,-0.0279,1.0013,-0.0023,0.0179,0.0096,0.0032,-0.0254,0.0009,-25.2465,3.6661,-40.1714,
10.9590,0.2240,-0.0279,1.0013,-0.0023,0.0179,0.0096,-0.0041,-0.0241,0.0003,-25.2465,3.6661,-40.1714,
11.0020,0.2250,-0.0290,1.0068,-0.0023,0.0179,0.0096,-0.0041,-0.0241,0.0003,-25.2465,3.6661,-40.1714,
11.0030,0.2250,-0.0290,1.0068,-0.0023,0.0179,0.0096,-0.0041,-0.0241,0.0003,-25.2492,3.6833,-40.1357,
11.0040,0.2250,-0.0290,1.0068,-0.0023,0.0179,0.0096,-0.0029,-0.0028,0.0009,-25.2492,3.6833,-40.1357,
11.0040,0.2262,-0.0273,1.0064,-0.0023,0.0179,0.0096,-0.0029,-0.0028,0.0009,-25.2492,3.6833,-40.1357,
11.0390,0.2262,-0.0273,1.0064,-0.0023,0.0179,0.0096,-0.0008,-0.0095,-0.0003,-25.2492,3.6833,-40.1357,
11.0400,0.2265,-0.0284,1.0060,-0.0023,0.0179,0.0096,-0.0008,-0.0095,-0.0003,-25.2492,3.6833,-40.1357,
11.0410,0.2239,-0.0272,1.0053,-0.0023,0.0179,0.0096,-0.0008,-0.0095,-0.0003,-25.2492,3.6833,-40.1357,
11.0420,0.2239,-0.0272,1.0053,-0.0038,0.0128,-0.0278,-0.0008,-0.0095,-0.0003,-25.2492,3.6833,-40.1357,
11.0620,0.2239,-0.0272,1.0053,-0.0038,0.0128,-0.0278,-0.0008,-0.0095,-0.0003,-25.2756,3.6912,-40.1219,
11.0640,0.2244,-0.0266,1.0030,-0.0038,0.0128,-0.0278,-0.0008,-0.0095,-0.0003,-25.2756,3.6912,-40.1219,
11.0970,0.2244,-0.0266,1.0030,0.0094,0.0108,0.0013,-0.0008,-0.0095,-0.0003,-25.2756,3.6912,-40.1219,
11.0980,0.2244,-0.0266,1.0030,0.0094,0.0108,0.0013,0.0007,0.0085,0.0009,-25.2756,3.6912,-40.1219,
11.0990,0.2236,-0.0266,1.0080,0.0094,0.0108,0.0013,0.0007,0.0085,0.0009,-25.2756,3.6912,-40.1219,
11.0990,0.2239,-0.0248,1.0035,0.0094,0.0108,0.0013,0.0007,0.0085,0.0009,-25.2756,3.6912,-40.1219,
11.1430,0.2239,-0.0248,1.0035,0.0094,0.0108,0.0013,-0.0026,0.0027,0.0012,-25.2756,3.6912,-40.1219,
11.1440,0.2240,-0.0272,1.0032,0.0094,0.0108,0.0013,-0.0026,0.0027,0.0012,-25.2756,3.6912,-40.1219,
11.1450,0.2249,-0.0271,1.0081,0.0094,0.0108,0.0013,-0.0026,0.0027,0.0012,-25.2756,3.6912,-40.1219,
11.1460,0.2249,-0.0271,1.0081,0.0094,0.0108,0.0013,-0.0026,0.0027,0.0012,-25.3411,3.6667,-40.1333,
11.1730,0.2249,-0.0271,1.0081,0.0094,0.0108,0.0013,-0.0023,0.0034,0.0003,-25.3411,3.6667,-40.1333,
11.1740,0.2246,-0.0259,1.0042,0.0094,0.0108,0.0013,-0.0023,0.0034,0.0003,-25.3411,3.6667,-40.1333,
11.1750,0.2254,-0.0262,0.9992,0.0094,0.0108,0.0013,-0.0023,0.0034,0.0003,-25.3411,3.6667,-40.1333,
11.1760,0.2254,-0.0262,0.9992,-0.0047,0.0273,-0.0157,-0.0023,0.0034,0.0003,-25.3411,3.6667,-40.1333,
11.2030,0.2254,-0.0262,1.0040,-0.0047,0.0273,-0.0157,-0.0023,0.0034,0.0003,-25.3411,3.6667,-40.1333,
11.2050,0.2254,-0.0262,1.0040,-0.0047,0.0273,-0.0157,-0.0072,0.0006,0.0012,-25.3411,3.6667,-40.1333,
11.2050,0.2254,-0.0262,1.0040,-0.0047,0.0273,-0.0157,-0.0072,0.0006,0.0012,-25.3820,3.6502,-40.1083,
11.2330,0.2254,-0.0262,1.0040,-0.0047,0.0273,-0.0157,-0.0081,0.0082,0.0012,-25.3820,3.6502,-40.1083,
11.2340,0.2255,-0.0283,1.0031,-0.0047,0.0273,-0.0157,-0.0081,0.0082,0.0012,-25.3820,3.6502,-40.1083,
11.2350,0.2233,-0.0261,1.0162,-0.0047,0.0273,-0.0157,-0.0081,0.0082,0.0012,-25.3820,3.6502,-40.1083,
11.2360,0.2233,-0.0261,1.0162,0.0071,0.0261,-0.0166,-0.0081,0.0082,0.0012,-25.3820,3.6502,-40.1083,
11.2630,0.2233,-0.0261,1.0162,0.0071,0.0261,-0.0166,-0.0081,0.0082,0.0012,-25.4184,3.6357,-40.0480,
11.2640,0.2210,-0.0296,1.0164,0.0071,0.0261,-0.0166,-0.0081,0.0082,0.0012,-25.4184,3.6357,-40.0480,
11.3100,0.2261,-0.0306,0.9990,0.0071,0.0261,-0.0166,-0.0081,0.0082,0.0012,-25.4184,3.6357,-40.0480,
