
time,gFx,gFy,gFz,ax,ay,az,wx,wy,wz,Bx,By,Bz,
0.0400,0.1079,-0.0387,1.0232,0.0000,0.0000,0.0000,0.0000,0.0000,0.0000,0.0000,0.0000,0.0000,
0.0400,0.1079,-0.0387,1.0232,0.0000,0.0000,0.0000,-0.0021,-0.0111,-0.0017,0.0000,0.0000,0.0000,
0.0830,0.1079,-0.0387,1.0232,0.0000,0.0000,0.0000,0.0001,-0.0163,-0.0035,0.0000,0.0000,0.0000,
0.0840,0.1110,-0.0384,1.0201,0.0000,0.0000,0.0000,0.0001,-0.0163,-0.0035,0.0000,0.0000,0.0000,
0.0840,0.1121,-0.0389,1.0241,0.0000,0.0000,0.0000,0.0001,-0.0163,-0.0035,0.0000,0.0000,0.0000,
0.1040,0.1116,-0.0387,1.0200,0.0000,0.0000,0.0000,0.0001,-0.0163,-0.0035,0.0000,0.0000,0.0000,
0.1520,0.1116,-0.0387,1.0200,0.0000,0.0000,0.0000,0.0001,-0.0163,-0.0035,-20.4995,2.1509,-42.8827,
0.1530,0.1097,-0.0397,1.0235,0.0000,0.0000,0.0000,0.0001,-0.0163,-0.0035,-20.4995,2.1509,-42.8827,
0.1530,0.1069,-0.0416,1.0218,0.0000,0.0000,0.0000,0.0001,-0.0163,-0.0035,-20.4995,2.1509,-42.8827,
0.1540,0.1042,-0.0397,1.0207,0.0000,0.0000,0.0000,0.0001,-0.0163,-0.0035,-20.4995,2.1509,-42.8827,
0.1540,0.1042,-0.0397,1.0207,0.0000,0.0000,0.0000,-0.0008,-0.0136,0.0004,-20.4995,2.1509,-42.8827,
0.1540,0.1042,-0.0397,1.0207,0.0000,0.0000,0.0000,0.0016,-0.0130,-0.0014,-20.4995,2.1509,-42.8827,
0.1670,0.1046,-0.0383,1.0205,0.0000,0.0000,0.0000,0.0016,-0.0130,-0.0014,-20.4995,2.1509,-42.8827,
0.1680,0.1046,-0.0383,1.0205,0.0000,0.0000,0.0000,0.0016,-0.0130,-0.0014,-20.4995,2.1509,-42.8827,
0.2180,0.1076,-0.0382,1.0218,0.0000,0.0000,0.0000,0.0016,-0.0130,-0.0014,-20.4995,2.1509,-42.8827,
0.2190,0.1076,-0.0382,1.0218,0.0000,0.0000,0.0000,0.0016,-0.0130,-0.0014,-19.9563,1.6076,-43.3809,
0.2200,0.1081,-0.0383,1.0257,0.0000,0.0000,0.0000,0.0016,-0.0130,-0.0014,-19.9563,1.6076,-43.3809,
0.2200,0.1081,-0.0383,1.0257,0.0000,0.0000,0.0000,-0.0021,-0.0145,-0.0023,-19.9563,1.6076,-43.3809,
0.2380,0.1079,-0.0406,1.0255,0.0000,0.0000,0.0000,-0.0021,-0.0145,-0.0023,-19.9563,1.6076,-43.3809,
0.2390,0.1079,-0.0406,1.0255,0.0000,0.0000,0.0000,-0.0057,-0.0114,-0.0011,-19.9563,1.6076,-43.3809,
0.2440,0.1079,-0.0406,1.0255,-0.0315,-0.0018,-0.0084,-0.0057,-0.0114,-0.0011,-19.9563,1.6076,-43.3809,
0.2450,0.1064,-0.0397,1.0246,-0.0315,-0.0018,-0.0084,-0.0057,-0.0114,-0.0011,-19.9563,1.6076,-43.3809,
0.2850,0.1048,-0.0392,1.0219,-0.0315,-0.0018,-0.0084,-0.0057,-0.0114,-0.0011,-19.9563,1.6076,-43.3809,
0.2850,0.1049,-0.0378,1.0208,-0.0315,-0.0018,-0.0084,-0.0057,-0.0114,-0.0011,-19.9563,1.6076,-43.3809,
0.2860,0.1049,-0.0378,1.0208,-0.0315,-0.0018,-0.0084,-0.0057,-0.0114,-0.0011,-19.8133,1.5781,-43.2749,
0.2870,0.1049,-0.0378,1.0208,-0.0315,-0.0018,-0.0084,-0.0011,-0.0108,-0.0008,-19.8133,1.5781,-43.2749,
0.3030,0.1068,-0.0366,1.0205,-0.0315,-0.0018,-0.0084,-0.0011,-0.0108,-0.0008,-19.8133,1.5781,-43.2749,
0.3040,0.1068,-0.0366,1.0205,-0.0315,-0.0018,-0.0084,-0.0018,-0.0166,-0.0017,-19.8133,1.5781,-43.2749,
0.3050,0.1068,-0.0366,1.0205,-0.0141,0.0014,0.0212,-0.0018,-0.0166,-0.0017,-19.8133,1.5781,-43.2749,
0.3490,0.1092,-0.0375,1.0150,-0.0141,0.0014,0.0212,-0.0018,-0.0166,-0.0017,-19.8133,1.5781,-43.2749,
0.3500,0.1092,-0.0375,1.0150,-0.0141,0.0014,0.0212,-0.0018,-0.0166,-0.0017,-19.8139,1.5797,-43.2235,
0.3510,0.1105,-0.0427,1.0192,-0.0141,0.0014,0.0212,-0.0018,-0.0166,-0.0017,-19.8139,1.5797,-43.2235,
0.3520,0.1105,-0.0427,1.0192,-0.0141,0.0014,0.0212,-0.0042,-0.0160,-0.0020,-19.8139,1.5797,-43.2235,
0.3710,0.1107,-0.0431,1.0249,-0.0141,0.0014,0.0212,-0.0042,-0.0160,-0.0020,-19.8139,1.5797,-43.2235,
0.3800,0.1107,-0.0431,1.0249,-0.0141,0.0014,0.0212,-0.0063,-0.0105,0.0004,-19.8139,1.5797,-43.2235,
0.3810,0.1076,-0.0386,1.0362,-0.0141,0.0014,0.0212,-0.0063,-0.0105,0.0004,-19.8139,1.5797,-43.2235,
0.3820,0.1076,-0.0386,1.0362,-0.0290,0.0163,-0.0177,-0.0063,-0.0105,0.0004,-19.8139,1.5797,-43.2235,
0.4170,0.1039,-0.0403,1.0335,-0.0290,0.0163,-0.0177,-0.0063,-0.0105,0.0004,-19.8139,1.5797,-43.2235,
0.4180,0.1039,-0.0403,1.0335,-0.0290,0.0163,-0.0177,-0.0063,-0.0105,0.0004,-19.8322,1.6112,-43.1913,
0.4380,0.1019,-0.0442,1.0118,-0.0290,0.0163,-0.0177,-0.0063,-0.0105,0.0004,-19.8322,1.6112,-43.1913,
0.4390,0.1019,-0.0442,1.0118,-0.0290,0.0163,-0.0177,0.0120,-0.0246,0.0001,-19.8322,1.6112,-43.1913,
0.4390,0.1080,-0.0439,0.9933,-0.0290,0.0163,-0.0177,0.0120,-0.0246,0.0001,-19.8322,1.6112,-43.1913,
0.4400,0.1080,-0.0439,0.9933,-0.0081,-0.0149,0.0247,0.0120,-0.0246,0.0001,-19.8322,1.6112,-43.1913,
0.4840,0.1140,-0.0373,1.0389,-0.0081,-0.0149,0.0247,0.0120,-0.0246,0.0001,-19.8322,1.6112,-43.1913,
0.4850,0.1140,-0.0373,1.0389,-0.0081,-0.0149,0.0247,-0.0115,-0.0230,0.0001,-19.8322,1.6112,-43.1913,
0.4860,0.1179,-0.0345,1.0307,-0.0081,-0.0149,0.0247,-0.0115,-0.0230,0.0001,-19.8322,1.6112,-43.1913,
0.4860,0.1179,-0.0345,1.0307,-0.0081,-0.0149,0.0247,-0.0115,-0.0230,0.0001,-19.8627,1.5775,-43.2253,
0.5050,0.1154,-0.0364,1.0012,-0.0081,-0.0149,0.0247,-0.0115,-0.0230,0.0001,-19.8627,1.5775,-43.2253,
0.5060,0.1154,-0.0364,1.0012,-0.0081,-0.0149,0.0247,0.0144,-0.0096,0.0013,-19.8627,1.5775,-43.2253,
0.5190,0.1064,-0.0375,1.0280,-0.0081,-0.0149,0.0247,0.0144,-0.0096,0.0013,-19.8627,1.5775,-43.2253,
0.5200,0.1064,-0.0375,1.0280,-0.0404,-0.0230,-0.0615,0.0144,-0.0096,0.0013,-19.8627,1.5775,-43.2253,
0.5500,0.1064,-0.0375,1.0280,-0.0404,-0.0230,-0.0615,-0.0057,-0.0001,0.0007,-19.8627,1.5775,-43.2253,
0.5510,0.0972,-0.0428,1.0327,-0.0404,-0.0230,-0.0615,-0.0057,-0.0001,0.0007,-19.8627,1.5775,-43.2253,
0.5510,0.0972,-0.0428,1.0327,-0.0404,-0.0230,-0.0615,-0.0057,-0.0001,0.0007,-19.8427,1.5679,-43.2032,
0.5720,0.0921,-0.0437,1.0208,-0.0404,-0.0230,-0.0615,-0.0057,-0.0001,0.0007,-19.8427,1.5679,-43.2032,
0.5760,0.0948,-0.0376,1.0206,-0.0404,-0.0230,-0.0615,-0.0057,-0.0001,0.0007,-19.8427,1.5679,-43.2032,
0.5770,0.0948,-0.0376,1.0206,-0.0404,-0.0230,-0.0615,0.0004,-0.0350,-0.0008,-19.8427,1.5679,-43.2032,
0.5770,0.0948,-0.0376,1.0206,0.0119,0.0308,0.0280,0.0004,-0.0350,-0.0008,-19.8427,1.5679,-43.2032,
0.6170,0.1055,-0.0355,1.0192,0.0119,0.0308,0.0280,0.0004,-0.0350,-0.0008,-19.8427,1.5679,-43.2032,
0.6180,0.1055,-0.0355,1.0192,0.0119,0.0308,0.0280,-0.0030,-0.0389,-0.0069,-19.8427,1.5679,-43.2032,
0.6180,0.1173,-0.0369,1.0195,0.0119,0.0308,0.0280,-0.0030,-0.0389,-0.0069,-19.8427,1.5679,-43.2032,
0.6190,0.1173,-0.0369,1.0195,0.0119,0.0308,0.0280,-0.0030,-0.0389,-0.0069,-19.8755,1.5896,-43.1351,
0.6380,0.1236,-0.0391,1.0194,0.0119,0.0308,0.0280,-0.0030,-0.0389,-0.0069,-19.8755,1.5896,-43.1351,
0.6540,0.1236,-0.0391,1.0194,0.0119,0.0308,0.0280,-0.0027,-0.0111,-0.0072,-19.8755,1.5896,-43.1351,
0.6540,0.1225,-0.0382,1.0208,0.0119,0.0308,0.0280,-0.0027,-0.0111,-0.0072,-19.8755,1.5896,-43.1351,
0.6550,0.1225,-0.0382,1.0208,-0.1536,-0.0087,0.0216,-0.0027,-0.0111,-0.0072,-19.8755,1.5896,-43.1351,
0.6830,0.1116,-0.0377,1.0197,-0.1536,-0.0087,0.0216,-0.0027,-0.0111,-0.0072,-19.8755,1.5896,-43.1351,
0.6840,0.1116,-0.0377,1.0197,-0.1536,-0.0087,0.0216,-0.0027,-0.0111,-0.0072,-19.9021,1.5607,-43.0864,
0.7050,0.1022,-0.0372,1.0201,-0.1536,-0.0087,0.0216,-0.0027,-0.0111,-0.0072,-19.9021,1.5607,-43.0864,
0.7050,0.1022,-0.0372,1.0201,-0.1536,-0.0087,0.0216,-0.0060,0.0005,0.0001,-19.9021,1.5607,-43.0864,
0.7140,0.0998,-0.0376,1.0199,-0.1536,-0.0087,0.0216,-0.0060,0.0005,0.0001,-19.9021,1.5607,-43.0864,
0.7140,0.0998,-0.0376,1.0199,0.0649,0.0192,-0.0145,-0.0060,0.0005,0.0001,-19.9021,1.5607,-43.0864,
0.7510,0.1016,-0.0380,1.0229,0.0649,0.0192,-0.0145,-0.0060,0.0005,0.0001,-19.9021,1.5607,-43.0864,
0.7530,0.1016,-0.0380,1.0229,0.0649,0.0192,-0.0145,-0.0060,0.0005,0.0001,-19.9385,1.5586,-43.1007,
0.7530,0.1016,-0.0380,1.0229,0.0649,0.0192,-0.0145,-0.0051,-0.0124,-0.0011,-19.9385,1.5586,-43.1007,
0.7720,0.1016,-0.0380,1.0229,0.0649,0.0192,-0.0145,-0.0039,-0.0212,-0.0048,-19.9385,1.5586,-43.1007,
0.7730,0.1047,-0.0394,1.0236,0.0649,0.0192,-0.0145,-0.0039,-0.0212,-0.0048,-19.9385,1.5586,-43.1007,
0.7750,0.1075,-0.0409,1.0241,0.0649,0.0192,-0.0145,-0.0039,-0.0212,-0.0048,-19.9385,1.5586,-43.1007,
0.7920,0.1110,-0.0392,1.0197,0.0649,0.0192,-0.0145,-0.0039,-0.0212,-0.0048,-19.9385,1.5586,-43.1007,
0.7930,0.1110,-0.0392,1.0197,-0.0885,0.0208,-0.0095,-0.0039,-0.0212,-0.0048,-19.9385,1.5586,-43.1007,
0.8170,0.1129,-0.0389,1.0186,-0.0885,0.0208,-0.0095,-0.0039,-0.0212,-0.0048,-19.9385,1.5586,-43.1007,
0.8200,0.1129,-0.0389,1.0186,-0.0885,0.0208,-0.0095,-0.0039,-0.0212,-0.0048,-20.0620,1.5127,-43.1464,
0.8210,0.1129,-0.0389,1.0186,-0.0885,0.0208,-0.0095,-0.0021,-0.0182,-0.0002,-20.0620,1.5127,-43.1464,
0.8380,0.1124,-0.0430,1.0192,-0.0885,0.0208,-0.0095,-0.0021,-0.0182,-0.0002,-20.0620,1.5127,-43.1464,
0.8500,0.1076,-0.0449,1.0172,-0.0885,0.0208,-0.0095,-0.0021,-0.0182,-0.0002,-20.0620,1.5127,-43.1464,
0.8500,0.1076,-0.0449,1.0172,-0.0885,0.0208,-0.0095,-0.0030,-0.0072,0.0010,-20.0620,1.5127,-43.1464,
0.8520,0.1076,-0.0449,1.0172,-0.0580,0.0024,0.0153,-0.0030,-0.0072,0.0010,-20.0620,1.5127,-43.1464,
0.8840,0.1076,-0.0449,1.0172,-0.0580,0.0024,0.0153,-0.0030,-0.0072,0.0010,-20.1108,1.5106,-43.1482,
0.8870,0.1032,-0.0437,1.0208,-0.0580,0.0024,0.0153,-0.0030,-0.0072,0.0010,-20.1108,1.5106,-43.1482,
0.9050,0.1032,-0.0437,1.0208,-0.0580,0.0024,0.0153,-0.0015,-0.0139,-0.0005,-20.1108,1.5106,-43.1482,
0.9060,0.1009,-0.0420,1.0207,-0.0580,0.0024,0.0153,-0.0015,-0.0139,-0.0005,-20.1108,1.5106,-43.1482,
0.9290,0.1009,-0.0420,1.0207,-0.0580,0.0024,0.0153,-0.0018,-0.0191,-0.0014,-20.1108,1.5106,-43.1482,
0.9310,0.1009,-0.0420,1.0207,-0.0371,-0.0231,-0.0210,-0.0018,-0.0191,-0.0014,-20.1108,1.5106,-43.1482,
0.9310,0.1032,-0.0402,1.0227,-0.0371,-0.0231,-0.0210,-0.0018,-0.0191,-0.0014,-20.1108,1.5106,-43.1482,
0.9320,0.1086,-0.0408,1.0250,-0.0371,-0.0231,-0.0210,-0.0018,-0.0191,-0.0014,-20.1108,1.5106,-43.1482,
0.9500,0.1120,-0.0411,1.0222,-0.0371,-0.0231,-0.0210,-0.0018,-0.0191,-0.0014,-20.1108,1.5106,-43.1482,
0.9520,0.1120,-0.0411,1.0222,-0.0371,-0.0231,-0.0210,-0.0018,-0.0191,-0.0014,-20.1733,1.4784,-43.1524,
0.9720,0.1120,-0.0411,1.0222,-0.0371,-0.0231,-0.0210,-0.0011,-0.0212,-0.0048,-20.1733,1.4784,-43.1524,
0.9730,0.1129,-0.0406,1.0216,-0.0371,-0.0231,-0.0210,-0.0011,-0.0212,-0.0048,-20.1733,1.4784,-43.1524,
0.9870,0.1133,-0.0402,1.0205,-0.0371,-0.0231,-0.0210,-0.0011,-0.0212,-0.0048,-20.1733,1.4784,-43.1524,
0.9890,0.1133,-0.0402,1.0205,-0.0954,-0.0089,0.0166,-0.0011,-0.0212,-0.0048,-20.1733,1.4784,-43.1524,
1.0170,0.1133,-0.0402,1.0205,-0.0954,-0.0089,0.0166,-0.0011,-0.0212,-0.0048,-20.2216,1.4860,-43.1536,
1.0190,0.1124,-0.0406,1.0175,-0.0954,-0.0089,0.0166,-0.0011,-0.0212,-0.0048,-20.2216,1.4860,-43.1536,
1.0200,0.1124,-0.0406,1.0175,-0.0954,-0.0089,0.0166,-0.0002,-0.0145,-0.0038,-20.2216,1.4860,-43.1536,
1.0380,0.1087,-0.0395,1.0177,-0.0954,-0.0089,0.0166,-0.0002,-0.0145,-0.0038,-20.2216,1.4860,-43.1536,
1.0650,0.1059,-0.0384,1.0184,-0.0954,-0.0089,0.0166,-0.0002,-0.0145,-0.0038,-20.2216,1.4860,-43.1536,
1.0660,0.1059,-0.0384,1.0184,-0.0954,-0.0089,0.0166,-0.0002,-0.0102,-0.0032,-20.2216,1.4860,-43.1536,
1.0660,0.1055,-0.0387,1.0186,-0.0954,-0.0089,0.0166,-0.0002,-0.0102,-0.0032,-20.2216,1.4860,-43.1536,
1.0670,0.1055,-0.0387,1.0186,-0.0134,-0.0027,0.0003,-0.0002,-0.0102,-0.0032,-20.2216,1.4860,-43.1536,
1.0840,0.1055,-0.0387,1.0186,-0.0134,-0.0027,0.0003,-0.0002,-0.0102,-0.0032,-20.2689,1.4913,-43.2320,
1.0850,0.1055,-0.0387,1.0186,-0.0134,-0.0027,0.0003,-0.0011,-0.0108,-0.0032,-20.2689,1.4913,-43.2320,
1.1050,0.1070,-0.0387,1.0200,-0.0134,-0.0027,0.0003,-0.0011,-0.0108,-0.0032,-20.2689,1.4913,-43.2320,
1.1050,0.1090,-0.0403,1.0239,-0.0134,-0.0027,0.0003,-0.0011,-0.0108,-0.0032,-20.2689,1.4913,-43.2320,
1.1220,0.1090,-0.0403,1.0239,-0.0134,-0.0027,0.0003,-0.0030,-0.0136,-0.0011,-20.2689,1.4913,-43.2320,
1.1230,0.1087,-0.0417,1.0228,-0.0134,-0.0027,0.0003,-0.0030,-0.0136,-0.0011,-20.2689,1.4913,-43.2320,
1.1230,0.1087,-0.0417,1.0228,-0.0695,0.0123,-0.0219,-0.0030,-0.0136,-0.0011,-20.2689,1.4913,-43.2320,
1.1510,0.1068,-0.0416,1.0219,-0.0695,0.0123,-0.0219,-0.0030,-0.0136,-0.0011,-20.2689,1.4913,-43.2320,
1.1510,0.1068,-0.0416,1.0219,-0.0695,0.0123,-0.0219,-0.0030,-0.0136,-0.0011,-20.2811,1.4687,-43.3110,
1.1720,0.1068,-0.0416,1.0219,-0.0695,0.0123,-0.0219,-0.0015,-0.0090,0.0010,-20.2811,1.4687,-43.3110,
1.1730,0.1065,-0.0437,1.0175,-0.0695,0.0123,-0.0219,-0.0015,-0.0090,0.0010,-20.2811,1.4687,-43.3110,
1.2010,0.1065,-0.0437,1.0175,-0.0695,0.0123,-0.0219,-0.0070,-0.0075,0.0001,-20.2811,1.4687,-43.3110,
1.2010,0.1071,-0.0422,1.0173,-0.0695,0.0123,-0.0219,-0.0070,-0.0075,0.0001,-20.2811,1.4687,-43.3110,
1.2020,0.1076,-0.0414,1.0175,-0.0695,0.0123,-0.0219,-0.0070,-0.0075,0.0001,-20.2811,1.4687,-43.3110,
1.2020,0.1076,-0.0414,1.0175,-0.0584,0.0028,0.0152,-0.0070,-0.0075,0.0001,-20.2811,1.4687,-43.3110,
1.2170,0.1076,-0.0414,1.0175,-0.0584,0.0028,0.0152,-0.0070,-0.0075,0.0001,-20.2552,1.4992,-43.3081,
1.2380,0.1102,-0.0415,1.0156,-0.0584,0.0028,0.0152,-0.0070,-0.0075,0.0001,-20.2552,1.4992,-43.3081,
1.2600,0.1099,-0.0458,1.0233,-0.0584,0.0028,0.0152,-0.0070,-0.0075,0.0001,-20.2552,1.4992,-43.3081,
1.2610,0.1099,-0.0458,1.0233,-0.0584,0.0028,0.0152,-0.0137,0.0005,-0.0023,-20.2552,1.4992,-43.3081,
1.2620,0.1091,-0.0453,1.0296,-0.0584,0.0028,0.0152,-0.0137,0.0005,-0.0023,-20.2552,1.4992,-43.3081,
1.2620,0.1091,-0.0453,1.0296,-0.0636,-0.0079,-0.0199,-0.0137,0.0005,-0.0023,-20.2552,1.4992,-43.3081,
1.2840,0.1091,-0.0453,1.0296,-0.0636,-0.0079,-0.0199,-0.0073,-0.0023,-0.0042,-20.2552,1.4992,-43.3081,
1.2850,0.1091,-0.0453,1.0296,-0.0636,-0.0079,-0.0199,-0.0073,-0.0023,-0.0042,-20.1933,1.5330,-43.2525,
1.2880,0.1052,-0.0420,1.0273,-0.0636,-0.0079,-0.0199,-0.0073,-0.0023,-0.0042,-20.1933,1.5330,-43.2525,
1.3060,0.1022,-0.0420,1.0286,-0.0636,-0.0079,-0.0199,-0.0073,-0.0023,-0.0042,-20.1933,1.5330,-43.2525,
1.3380,0.1022,-0.0420,1.0286,-0.0331,-0.0220,0.0272,-0.0073,-0.0023,-0.0042,-20.1933,1.5330,-43.2525,
1.3390,0.1022,-0.0420,1.0286,-0.0331,-0.0220,0.0272,0.0088,0.0088,-0.0014,-20.1933,1.5330,-43.2525,
1.3390,0.1025,-0.0449,1.0156,-0.0331,-0.0220,0.0272,0.0088,0.0088,-0.0014,-20.1933,1.5330,-43.2525,
1.3400,0.1071,-0.0443,0.9860,-0.0331,-0.0220,0.0272,0.0088,0.0088,-0.0014,-20.1933,1.5330,-43.2525,
1.3500,0.1071,-0.0443,0.9860,-0.0331,-0.0220,0.0272,0.0088,0.0088,-0.0014,-20.0561,1.5979,-43.2436,
1.3720,0.1071,-0.0443,0.9860,-0.0331,-0.0220,0.0272,-0.0236,0.0082,-0.0020,-20.0561,1.5979,-43.2436,
1.3730,0.1097,-0.0372,1.0334,-0.0331,-0.0220,0.0272,-0.0236,0.0082,-0.0020,-20.0561,1.5979,-43.2436,
1.3960,0.1121,-0.0380,1.0365,-0.0331,-0.0220,0.0272,-0.0236,0.0082,-0.0020,-20.0561,1.5979,-43.2436,
1.3980,0.1121,-0.0380,1.0365,-0.0331,-0.0220,0.0272,0.0042,0.0186,-0.0050,-20.0561,1.5979,-43.2436,
1.3990,0.1121,-0.0380,1.0365,-0.0630,-0.0081,-0.0707,0.0042,0.0186,-0.0050,-20.0561,1.5979,-43.2436,
1.4000,0.1114,-0.0420,0.9974,-0.0630,-0.0081,-0.0707,0.0042,0.0186,-0.0050,-20.0561,1.5979,-43.2436,
1.4170,0.1114,-0.0420,0.9974,-0.0630,-0.0081,-0.0707,0.0042,0.0186,-0.0050,-19.9560,1.6403,-43.2760,
1.4180,0.1010,-0.0419,1.0256,-0.0630,-0.0081,-0.0707,0.0042,0.0186,-0.0050,-19.9560,1.6403,-43.2760,
1.4380,0.1010,-0.0419,1.0256,-0.0630,-0.0081,-0.0707,-0.0151,0.0128,-0.0014,-19.9560,1.6403,-43.2760,
1.4390,0.0940,-0.0447,1.0352,-0.0630,-0.0081,-0.0707,-0.0151,0.0128,-0.0014,-19.9560,1.6403,-43.2760,
1.4740,0.0940,-0.0447,1.0352,-0.0630,-0.0081,-0.0707,-0.0056,-0.0113,0.0026,-19.9560,1.6403,-43.2760,
1.4770,0.0940,-0.0447,1.0352,-0.0048,0.0325,0.0113,-0.0056,-0.0113,0.0026,-19.9560,1.6403,-43.2760,
1.4780,0.0956,-0.0454,1.0177,-0.0048,0.0325,0.0113,-0.0056,-0.0113,0.0026,-19.9560,1.6403,-43.2760,
1.4780,0.0993,-0.0425,1.0228,-0.0048,0.0325,0.0113,-0.0056,-0.0113,0.0026,-19.9560,1.6403,-43.2760,
1.4830,0.0993,-0.0425,1.0228,-0.0048,0.0325,0.0113,-0.0056,-0.0113,0.0026,-19.8322,1.6744,-43.2953,
1.5040,0.1072,-0.0400,1.0213,-0.0048,0.0325,0.0113,-0.0056,-0.0113,0.0026,-19.8322,1.6744,-43.2953,
1.5330,0.1141,-0.0442,1.0179,-0.0048,0.0325,0.0113,-0.0056,-0.0113,0.0026,-19.8322,1.6744,-43.2953,
1.5330,0.1141,-0.0442,1.0179,-0.0048,0.0325,0.0113,-0.0074,-0.0083,-0.0044,-19.8322,1.6744,-43.2953,
1.5340,0.1153,-0.0463,1.0213,-0.0048,0.0325,0.0113,-0.0074,-0.0083,-0.0044,-19.8322,1.6744,-43.2953,
1.5350,0.1153,-0.0463,1.0213,-0.1248,-0.0064,0.0626,-0.0074,-0.0083,-0.0044,-19.8322,1.6744,-43.2953,
1.5490,0.1153,-0.0463,1.0213,-0.1248,-0.0064,0.0626,-0.0074,-0.0083,-0.0044,-19.8193,1.7174,-43.1894,
1.5720,0.1113,-0.0458,1.0223,-0.1248,-0.0064,0.0626,-0.0074,-0.0083,-0.0044,-19.8193,1.7174,-43.1894,
1.5720,0.1053,-0.0441,1.0201,-0.1248,-0.0064,0.0626,-0.0074,-0.0083,-0.0044,-19.8193,1.7174,-43.1894,
1.5720,0.1053,-0.0441,1.0201,-0.1248,-0.0064,0.0626,-0.0031,-0.0000,-0.0072,-19.8193,1.7174,-43.1894,
1.6120,0.1053,-0.0441,1.0201,0.0315,-0.0045,-0.0011,-0.0031,-0.0000,-0.0072,-19.8193,1.7174,-43.1894,
1.6130,0.1053,-0.0441,1.0201,0.0315,-0.0045,-0.0011,-0.0007,0.0085,-0.0011,-19.8193,1.7174,-43.1894,
1.6130,0.1039,-0.0424,1.0242,0.0315,-0.0045,-0.0011,-0.0007,0.0085,-0.0011,-19.8193,1.7174,-43.1894,
1.6140,0.1017,-0.0437,1.0261,0.0315,-0.0045,-0.0011,-0.0007,0.0085,-0.0011,-19.8193,1.7174,-43.1894,
1.6160,0.1017,-0.0437,1.0261,0.0315,-0.0045,-0.0011,-0.0007,0.0085,-0.0011,-19.8053,1.7580,-43.1607,
1.6380,0.1005,-0.0443,1.0279,0.0315,-0.0045,-0.0011,-0.0007,0.0085,-0.0011,-19.8053,1.7580,-43.1607,
1.6390,0.1005,-0.0443,1.0279,0.0315,-0.0045,-0.0011,0.0005,0.0073,-0.0005,-19.8053,1.7580,-43.1607,
1.6690,0.0988,-0.0438,1.0250,0.0315,-0.0045,-0.0011,0.0005,0.0073,-0.0005,-19.8053,1.7580,-43.1607,
1.6700,0.0995,-0.0439,1.0190,0.0315,-0.0045,-0.0011,0.0005,0.0073,-0.0005,-19.8053,1.7580,-43.1607,
1.6700,0.0995,-0.0439,1.0190,-0.0435,-0.0075,0.0216,0.0005,0.0073,-0.0005,-19.8053,1.7580,-43.1607,
1.6700,0.0995,-0.0439,1.0190,-0.0435,-0.0075,0.0216,0.0075,-0.0055,-0.0011,-19.8053,1.7580,-43.1607,
1.6830,0.0995,-0.0439,1.0190,-0.0435,-0.0075,0.0216,0.0075,-0.0055,-0.0011,-19.7665,1.8096,-43.1304,
1.7040,0.1046,-0.0398,1.0100,-0.0435,-0.0075,0.0216,0.0075,-0.0055,-0.0011,-19.7665,1.8096,-43.1304,
1.7470,0.1080,-0.0424,1.0141,-0.0435,-0.0075,0.0216,0.0075,-0.0055,-0.0011,-19.7665,1.8096,-43.1304,
1.7480,0.1080,-0.0424,1.0141,-0.0435,-0.0075,0.0216,0.0011,-0.0067,0.0005,-19.7665,1.8096,-43.1304,
1.7480,0.1080,-0.0424,1.0141,-0.0435,-0.0075,0.0216,0.0005,0.0079,0.0026,-19.7665,1.8096,-43.1304,
1.7490,0.1066,-0.0444,1.0247,-0.0435,-0.0075,0.0216,0.0005,0.0079,0.0026,-19.7665,1.8096,-43.1304,
1.7500,0.1066,-0.0444,1.0247,-0.0739,-0.0023,0.0084,0.0005,0.0079,0.0026,-19.7665,1.8096,-43.1304,
1.7500,0.1043,-0.0448,1.0234,-0.0739,-0.0023,0.0084,0.0005,0.0079,0.0026,-19.7665,1.8096,-43.1304,
1.7510,0.1043,-0.0448,1.0234,-0.0739,-0.0023,0.0084,0.0005,0.0079,0.0026,-19.7064,1.7812,-43.1814,
1.7720,0.1032,-0.0438,1.0239,-0.0739,-0.0023,0.0084,0.0005,0.0079,0.0026,-19.7064,1.7812,-43.1814,
1.8060,0.1032,-0.0438,1.0239,-0.0118,-0.0067,-0.0169,0.0005,0.0079,0.0026,-19.7064,1.7812,-43.1814,
1.8070,0.1009,-0.0431,1.0283,-0.0118,-0.0067,-0.0169,0.0005,0.0079,0.0026,-19.7064,1.7812,-43.1814,
1.8070,0.1009,-0.0431,1.0283,-0.0118,-0.0067,-0.0169,0.0036,0.0052,0.0069,-19.7064,1.7812,-43.1814,
1.8080,0.0997,-0.0427,1.0262,-0.0118,-0.0067,-0.0169,0.0036,0.0052,0.0069,-19.7064,1.7812,-43.1814,
1.8170,0.0997,-0.0427,1.0262,-0.0118,-0.0067,-0.0169,0.0036,0.0052,0.0069,-19.6336,1.7632,-43.2314,
1.8380,0.1019,-0.0445,1.0184,-0.0118,-0.0067,-0.0169,0.0036,0.0052,0.0069,-19.6336,1.7632,-43.2314,
1.8390,0.1019,-0.0445,1.0184,-0.0118,-0.0067,-0.0169,0.0082,-0.0031,0.0044,-19.6336,1.7632,-43.2314,
1.8850,0.1019,-0.0445,1.0184,-0.0118,-0.0067,-0.0169,0.0082,-0.0031,0.0044,-19.6460,1.7741,-43.1798,
1.8860,0.1019,-0.0445,1.0184,-0.0118,-0.0067,-0.0169,0.0030,-0.0077,0.0023,-19.6460,1.7741,-43.1798,
1.8870,0.1055,-0.0430,1.0235,-0.0118,-0.0067,-0.0169,0.0030,-0.0077,0.0023,-19.6460,1.7741,-43.1798,
1.8880,0.1087,-0.0442,1.0230,-0.0118,-0.0067,-0.0169,0.0030,-0.0077,0.0023,-19.6460,1.7741,-43.1798,
1.8880,0.1087,-0.0442,1.0230,-0.0582,-0.0090,0.0349,0.0030,-0.0077,0.0023,-19.6460,1.7741,-43.1798,
1.8900,0.1082,-0.0452,1.0213,-0.0582,-0.0090,0.0349,0.0030,-0.0077,0.0023,-19.6460,1.7741,-43.1798,
1.9050,0.1082,-0.0452,1.0213,-0.0582,-0.0090,0.0349,0.0069,-0.0058,0.0005,-19.6460,1.7741,-43.1798,
1.9060,0.1085,-0.0447,1.0203,-0.0582,-0.0090,0.0349,0.0069,-0.0058,0.0005,-19.6460,1.7741,-43.1798,
1.9430,0.1085,-0.0447,1.0203,-0.0582,-0.0090,0.0349,0.0082,0.0012,-0.0014,-19.6460,1.7741,-43.1798,
1.9450,0.1085,-0.0447,1.0203,-0.0036,-0.0175,0.0068,0.0082,0.0012,-0.0014,-19.6460,1.7741,-43.1798,
1.9460,0.1075,-0.0432,1.0185,-0.0036,-0.0175,0.0068,0.0082,0.0012,-0.0014,-19.6460,1.7741,-43.1798,
1.9460,0.1049,-0.0422,1.0227,-0.0036,-0.0175,0.0068,0.0082,0.0012,-0.0014,-19.6460,1.7741,-43.1798,
1.9500,0.1049,-0.0422,1.0227,-0.0036,-0.0175,0.0068,0.0082,0.0012,-0.0014,-19.6368,1.7268,-43.1439,
1.9710,0.1021,-0.0430,1.0234,-0.0036,-0.0175,0.0068,0.0082,0.0012,-0.0014,-19.6368,1.7268,-43.1439,
2.0170,0.1033,-0.0427,1.0210,-0.0036,-0.0175,0.0068,0.0082,0.0012,-0.0014,-19.6368,1.7268,-43.1439,
2.0180,0.1033,-0.0427,1.0210,-0.0036,-0.0175,0.0068,0.0082,0.0012,-0.0014,-19.6258,1.7081,-43.1318,
2.0190,0.1039,-0.0424,1.0229,-0.0036,-0.0175,0.0068,0.0082,0.0012,-0.0014,-19.6258,1.7081,-43.1318,
2.0190,0.1039,-0.0424,1.0229,-0.0036,-0.0175,0.0068,0.0085,0.0030,-0.0005,-19.6258,1.7081,-43.1318,
2.0210,0.1039,-0.0424,1.0229,-0.0036,-0.0175,0.0068,0.0042,-0.0016,-0.0008,-19.6258,1.7081,-43.1318,
2.0230,0.1039,-0.0424,1.0229,-0.0072,-0.0130,-0.0050,0.0042,-0.0016,-0.0008,-19.6258,1.7081,-43.1318,
2.0240,0.1037,-0.0424,1.0242,-0.0072,-0.0130,-0.0050,0.0042,-0.0016,-0.0008,-19.6258,1.7081,-43.1318,
2.0800,0.1037,-0.0424,1.0242,-0.0072,-0.0130,-0.0050,0.0042,-0.0061,-0.0017,-19.6258,1.7081,-43.1318,
2.0810,0.1020,-0.0419,1.0213,-0.0072,-0.0130,-0.0050,0.0042,-0.0061,-0.0017,-19.6258,1.7081,-43.1318,
2.0820,0.1032,-0.0424,1.0207,-0.0072,-0.0130,-0.0050,0.0042,-0.0061,-0.0017,-19.6258,1.7081,-43.1318,
2.0820,0.1038,-0.0411,1.0185,-0.0072,-0.0130,-0.0050,0.0042,-0.0061,-0.0017,-19.6258,1.7081,-43.1318,
2.0830,0.1038,-0.0411,1.0185,-0.0359,-0.0062,0.0129,0.0042,-0.0061,-0.0017,-19.6258,1.7081,-43.1318,
2.0830,0.1038,-0.0411,1.0185,-0.0359,-0.0062,0.0129,0.0042,-0.0061,-0.0017,-19.5544,1.6603,-43.1965,
2.1050,0.1038,-0.0411,1.0185,-0.0359,-0.0062,0.0129,-0.0013,-0.0074,-0.0005,-19.5544,1.6603,-43.1965,
2.1060,0.1065,-0.0408,1.0150,-0.0359,-0.0062,0.0129,-0.0013,-0.0074,-0.0005,-19.5544,1.6603,-43.1965,
2.1490,0.1079,-0.0437,1.0184,-0.0359,-0.0062,0.0129,-0.0013,-0.0074,-0.0005,-19.5544,1.6603,-43.1965,
2.1500,0.1079,-0.0437,1.0184,-0.0359,-0.0062,0.0129,-0.0007,0.0006,0.0005,-19.5544,1.6603,-43.1965,
2.1500,0.1079,-0.0464,1.0277,-0.0359,-0.0062,0.0129,-0.0007,0.0006,0.0005,-19.5544,1.6603,-43.1965,
2.1510,0.1079,-0.0464,1.0277,-0.0359,-0.0062,0.0129,-0.0007,0.0006,0.0005,-19.5322,1.6225,-43.1852,
2.1580,0.1070,-0.0420,1.0261,-0.0359,-0.0062,0.0129,-0.0007,0.0006,0.0005,-19.5322,1.6225,-43.1852,
2.1590,0.1070,-0.0420,1.0261,-0.0339,0.0030,-0.0175,-0.0007,0.0006,0.0005,-19.5322,1.6225,-43.1852,
2.2160,0.1037,-0.0404,1.0302,-0.0339,0.0030,-0.0175,-0.0007,0.0006,0.0005,-19.5322,1.6225,-43.1852,
2.2170,0.1035,-0.0438,1.0174,-0.0339,0.0030,-0.0175,-0.0007,0.0006,0.0005,-19.5322,1.6225,-43.1852,
2.2170,0.1061,-0.0449,0.9971,-0.0339,0.0030,-0.0175,-0.0007,0.0006,0.0005,-19.5322,1.6225,-43.1852,
2.2180,0.1061,-0.0449,0.9971,-0.0015,-0.0194,0.0130,-0.0007,0.0006,0.0005,-19.5322,1.6225,-43.1852,
2.2180,0.1061,-0.0449,0.9971,-0.0015,-0.0194,0.0130,0.0045,-0.0107,-0.0014,-19.5322,1.6225,-43.1852,
2.2190,0.1061,-0.0449,0.9971,-0.0015,-0.0194,0.0130,0.0133,-0.0159,-0.0008,-19.5322,1.6225,-43.1852,
2.2190,0.1061,-0.0449,0.9971,-0.0015,-0.0194,0.0130,0.0133,-0.0159,-0.0008,-19.5121,1.5564,-43.1372,
2.2380,0.1130,-0.0391,1.0078,-0.0015,-0.0194,0.0130,0.0133,-0.0159,-0.0008,-19.5121,1.5564,-43.1372,
2.2830,0.1130,-0.0391,1.0078,-0.0015,-0.0194,0.0130,-0.0175,0.0082,0.0001,-19.5121,1.5564,-43.1372,
2.2840,0.1130,-0.0391,1.0078,-0.0015,-0.0194,0.0130,-0.0175,0.0082,0.0001,-19.5354,1.5750,-43.1369,
2.2850,0.1108,-0.0345,1.0545,-0.0015,-0.0194,0.0130,-0.0175,0.0082,0.0001,-19.5354,1.5750,-43.1369,
2.2860,0.1142,-0.0403,1.0124,-0.0015,-0.0194,0.0130,-0.0175,0.0082,0.0001,-19.5354,1.5750,-43.1369,
2.2940,0.1061,-0.0425,1.0098,-0.0015,-0.0194,0.0130,-0.0175,0.0082,0.0001,-19.5354,1.5750,-43.1369,
2.2950,0.1061,-0.0425,1.0098,-0.0100,-0.0079,-0.0838,-0.0175,0.0082,0.0001,-19.5354,1.5750,-43.1369,
2.2950,0.1061,-0.0425,1.0098,-0.0100,-0.0079,-0.0838,0.0078,0.0165,0.0001,-19.5354,1.5750,-43.1369,
2.3500,0.0948,-0.0450,1.0437,-0.0100,-0.0079,-0.0838,0.0078,0.0165,0.0001,-19.5354,1.5750,-43.1369,
2.3510,0.0948,-0.0450,1.0437,-0.0100,-0.0079,-0.0838,0.0036,0.0024,0.0029,-19.5354,1.5750,-43.1369,
2.3520,0.0948,-0.0450,1.0437,-0.0100,-0.0079,-0.0838,0.0036,0.0024,0.0029,-19.5850,1.5638,-43.1136,
2.3520,0.0912,-0.0460,1.0230,-0.0100,-0.0079,-0.0838,0.0036,0.0024,0.0029,-19.5850,1.5638,-43.1136,
2.3530,0.0912,-0.0460,1.0230,0.0344,0.0258,0.0413,0.0036,0.0024,0.0029,-19.5850,1.5638,-43.1136,
2.3540,0.0927,-0.0422,1.0201,0.0344,0.0258,0.0413,0.0036,0.0024,0.0029,-19.5850,1.5638,-43.1136,
2.3720,0.0983,-0.0387,1.0244,0.0344,0.0258,0.0413,0.0036,0.0024,0.0029,-19.5850,1.5638,-43.1136,
2.3730,0.0983,-0.0387,1.0244,0.0344,0.0258,0.0413,0.0023,-0.0135,0.0029,-19.5850,1.5638,-43.1136,
2.4170,0.0983,-0.0387,1.0244,0.0344,0.0258,0.0413,0.0020,-0.0125,-0.0041,-19.5850,1.5638,-43.1136,
2.4200,0.0983,-0.0387,1.0244,0.0344,0.0258,0.0413,0.0020,-0.0125,-0.0041,-19.5985,1.5220,-43.1810,
2.4210,0.1080,-0.0399,1.0210,0.0344,0.0258,0.0413,0.0020,-0.0125,-0.0041,-19.5985,1.5220,-43.1810,
2.4220,0.1140,-0.0424,1.0233,0.0344,0.0258,0.0413,0.0020,-0.0125,-0.0041,-19.5985,1.5220,-43.1810,
2.4310,0.1147,-0.0426,1.0230,0.0344,0.0258,0.0413,0.0020,-0.0125,-0.0041,-19.5985,1.5220,-43.1810,
2.4310,0.1147,-0.0426,1.0230,-0.1270,-0.0208,0.0648,0.0020,-0.0125,-0.0041,-19.5985,1.5220,-43.1810,
2.4830,0.1147,-0.0426,1.0230,-0.1270,-0.0208,0.0648,0.0020,-0.0125,-0.0041,-19.6352,1.5097,-43.2087,
2.4840,0.1147,-0.0426,1.0230,-0.1270,-0.0208,0.0648,0.0030,0.0049,-0.0002,-19.6352,1.5097,-43.2087,
2.4850,0.1098,-0.0422,1.0239,-0.1270,-0.0208,0.0648,0.0030,0.0049,-0.0002,-19.6352,1.5097,-43.2087,
2.4860,0.1049,-0.0419,1.0201,-0.1270,-0.0208,0.0648,0.0030,0.0049,-0.0002,-19.6352,1.5097,-43.2087,
2.4890,0.1049,-0.0419,1.0201,-0.1270,-0.0208,0.0648,0.0075,0.0049,0.0038,-19.6352,1.5097,-43.2087,
2.4910,0.1003,-0.0426,1.0194,-0.1270,-0.0208,0.0648,0.0075,0.0049,0.0038,-19.6352,1.5097,-43.2087,
2.4920,0.1003,-0.0426,1.0194,0.0403,-0.0002,0.0085,0.0075,0.0049,0.0038,-19.6352,1.5097,-43.2087,
2.5500,0.1003,-0.0426,1.0194,0.0403,-0.0002,0.0085,0.0075,-0.0009,0.0038,-19.6352,1.5097,-43.2087,
2.5500,0.1014,-0.0420,1.0249,0.0403,-0.0002,0.0085,0.0075,-0.0009,0.0038,-19.6352,1.5097,-43.2087,
2.5510,0.1043,-0.0422,1.0251,0.0403,-0.0002,0.0085,0.0075,-0.0009,0.0038,-19.6352,1.5097,-43.2087,
2.5520,0.1039,-0.0426,1.0234,0.0403,-0.0002,0.0085,0.0075,-0.0009,0.0038,-19.6352,1.5097,-43.2087,
2.5520,0.1039,-0.0426,1.0234,0.0403,-0.0002,0.0085,0.0075,-0.0009,0.0038,-19.6718,1.5081,-43.2101,
2.5680,0.1039,-0.0426,1.0234,-0.0218,-0.0142,-0.0022,0.0075,-0.0009,0.0038,-19.6718,1.5081,-43.2101,
2.5700,0.1039,-0.0426,1.0234,-0.0218,-0.0142,-0.0022,0.0063,-0.0095,0.0008,-19.6718,1.5081,-43.2101,
2.5710,0.1039,-0.0417,1.0242,-0.0218,-0.0142,-0.0022,0.0063,-0.0095,0.0008,-19.6718,1.5081,-43.2101,
2.6160,0.1098,-0.0403,1.0130,-0.0218,-0.0142,-0.0022,0.0063,-0.0095,0.0008,-19.6718,1.5081,-43.2101,
2.6170,0.1098,-0.0403,1.0130,-0.0218,-0.0142,-0.0022,-0.0010,-0.0043,0.0020,-19.6718,1.5081,-43.2101,
2.6180,0.1110,-0.0391,1.0240,-0.0218,-0.0142,-0.0022,-0.0010,-0.0043,0.0020,-19.6718,1.5081,-43.2101,
2.6180,0.1110,-0.0391,1.0240,-0.0218,-0.0142,-0.0022,-0.0010,-0.0043,0.0020,-19.6713,1.5069,-43.2487,
2.6270,0.1059,-0.0405,1.0274,-0.0218,-0.0142,-0.0022,-0.0010,-0.0043,0.0020,-19.6713,1.5069,-43.2487,
2.6280,0.1059,-0.0405,1.0274,-0.0246,-0.0120,0.0232,-0.0010,-0.0043,0.0020,-19.6713,1.5069,-43.2487,
2.6840,0.1019,-0.0419,1.0189,-0.0246,-0.0120,0.0232,-0.0010,-0.0043,0.0020,-19.6713,1.5069,-43.2487,
2.6840,0.1019,-0.0419,1.0189,-0.0246,-0.0120,0.0232,0.0066,0.0042,0.0053,-19.6713,1.5069,-43.2487,
2.6850,0.1019,-0.0419,1.0189,-0.0246,-0.0120,0.0232,0.0066,0.0042,0.0053,-19.6972,1.4874,-43.2123,
2.6860,0.0992,-0.0409,1.0233,-0.0246,-0.0120,0.0232,0.0066,0.0042,0.0053,-19.6972,1.4874,-43.2123,
2.7050,0.0992,-0.0409,1.0233,-0.0246,-0.0120,0.0232,0.0103,-0.0022,0.0050,-19.6972,1.4874,-43.2123,
2.7060,0.0991,-0.0383,1.0256,-0.0246,-0.0120,0.0232,0.0103,-0.0022,0.0050,-19.6972,1.4874,-43.2123,
2.7060,0.1005,-0.0387,1.0239,-0.0246,-0.0120,0.0232,0.0103,-0.0022,0.0050,-19.6972,1.4874,-43.2123,
2.7070,0.1005,-0.0387,1.0239,0.0147,0.0002,-0.0111,0.0103,-0.0022,0.0050,-19.6972,1.4874,-43.2123,
2.7490,0.1044,-0.0399,1.0245,0.0147,0.0002,-0.0111,0.0103,-0.0022,0.0050,-19.6972,1.4874,-43.2123,
2.7500,0.1087,-0.0404,1.0283,0.0147,0.0002,-0.0111,0.0103,-0.0022,0.0050,-19.6972,1.4874,-43.2123,
2.7510,0.1087,-0.0404,1.0283,0.0147,0.0002,-0.0111,0.0103,-0.0022,0.0050,-19.7214,1.4634,-43.3174,
2.7510,0.1087,-0.0404,1.0283,0.0147,0.0002,-0.0111,0.0085,-0.0061,0.0035,-19.7214,1.4634,-43.3174,
2.7620,0.1090,-0.0414,1.0244,0.0147,0.0002,-0.0111,0.0085,-0.0061,0.0035,-19.7214,1.4634,-43.3174,
2.7630,0.1090,-0.0414,1.0244,-0.0638,0.0003,0.0162,0.0085,-0.0061,0.0035,-19.7214,1.4634,-43.3174,
2.7630,0.1090,-0.0414,1.0244,-0.0638,0.0003,0.0162,0.0063,-0.0052,0.0020,-19.7214,1.4634,-43.3174,
2.8160,0.1090,-0.0414,1.0244,-0.0638,0.0003,0.0162,0.0069,-0.0043,0.0014,-19.7214,1.4634,-43.3174,
2.8170,0.1096,-0.0411,1.0224,-0.0638,0.0003,0.0162,0.0069,-0.0043,0.0014,-19.7214,1.4634,-43.3174,
2.8180,0.1057,-0.0408,1.0216,-0.0638,0.0003,0.0162,0.0069,-0.0043,0.0014,-19.7214,1.4634,-43.3174,
2.8180,0.1057,-0.0408,1.0216,-0.0638,0.0003,0.0162,0.0069,-0.0043,0.0014,-19.7090,1.4746,-43.2905,
2.8380,0.1039,-0.0399,1.0208,-0.0638,0.0003,0.0162,0.0069,-0.0043,0.0014,-19.7090,1.4746,-43.2905,
2.8400,0.1042,-0.0409,1.0190,-0.0638,0.0003,0.0162,0.0069,-0.0043,0.0014,-19.7090,1.4746,-43.2905,
2.8400,0.1042,-0.0409,1.0190,-0.0638,0.0003,0.0162,0.0075,-0.0052,0.0017,-19.7090,1.4746,-43.2905,
2.8410,0.1042,-0.0409,1.0190,0.0115,-0.0129,0.0279,0.0075,-0.0052,0.0017,-19.7090,1.4746,-43.2905,
2.8830,0.1053,-0.0392,1.0201,0.0115,-0.0129,0.0279,0.0075,-0.0052,0.0017,-19.7090,1.4746,-43.2905,
2.8840,0.1053,-0.0392,1.0201,0.0115,-0.0129,0.0279,0.0042,-0.0049,0.0008,-19.7090,1.4746,-43.2905,
2.8840,0.1068,-0.0395,1.0205,0.0115,-0.0129,0.0279,0.0042,-0.0049,0.0008,-19.7090,1.4746,-43.2905,
2.8850,0.1068,-0.0395,1.0205,0.0115,-0.0129,0.0279,0.0042,-0.0049,0.0008,-19.6963,1.4629,-43.3679,
2.8990,0.1068,-0.0395,1.0205,-0.0168,-0.0124,-0.0154,0.0042,-0.0049,0.0008,-19.6963,1.4629,-43.3679,
2.9000,0.1065,-0.0403,1.0236,-0.0168,-0.0124,-0.0154,0.0042,-0.0049,0.0008,-19.6963,1.4629,-43.3679,
2.9510,0.1065,-0.0403,1.0236,-0.0168,-0.0124,-0.0154,0.0045,-0.0055,0.0011,-19.6963,1.4629,-43.3679,
2.9510,0.1058,-0.0399,1.0250,-0.0168,-0.0124,-0.0154,0.0045,-0.0055,0.0011,-19.6963,1.4629,-43.3679,
2.9520,0.1058,-0.0389,1.0277,-0.0168,-0.0124,-0.0154,0.0045,-0.0055,0.0011,-19.6963,1.4629,-43.3679,
2.9520,0.1058,-0.0389,1.0277,-0.0168,-0.0124,-0.0154,0.0045,-0.0055,0.0011,-19.7226,1.4442,-43.3058,
2.9710,0.1058,-0.0389,1.0277,-0.0168,-0.0124,-0.0154,0.0051,-0.0043,0.0035,-19.7226,1.4442,-43.3058,
2.9720,0.1049,-0.0408,1.0232,-0.0168,-0.0124,-0.0154,0.0051,-0.0043,0.0035,-19.7226,1.4442,-43.3058,
2.9770,0.1049,-0.0408,1.0232,-0.0102,-0.0070,-0.0028,0.0051,-0.0043,0.0035,-19.7226,1.4442,-43.3058,
2.9780,0.1048,-0.0382,1.0232,-0.0102,-0.0070,-0.0028,0.0051,-0.0043,0.0035,-19.7226,1.4442,-43.3058,
3.0170,0.1087,-0.0383,1.0140,-0.0102,-0.0070,-0.0028,0.0051,-0.0043,0.0035,-19.7226,1.4442,-43.3058,
3.0180,0.1087,-0.0383,1.0140,-0.0102,-0.0070,-0.0028,0.0042,-0.0104,0.0026,-19.7226,1.4442,-43.3058,
3.0190,0.1087,-0.0383,1.0140,-0.0102,-0.0070,-0.0028,0.0042,-0.0104,0.0026,-19.7102,1.4554,-43.2789,
3.0200,0.1111,-0.0404,1.0225,-0.0102,-0.0070,-0.0028,0.0042,-0.0104,0.0026,-19.7102,1.4554,-43.2789,
3.0350,0.1111,-0.0404,1.0225,-0.0218,-0.0037,0.0227,0.0042,-0.0104,0.0026,-19.7102,1.4554,-43.2789,
3.0370,0.1111,-0.0404,1.0225,-0.0218,-0.0037,0.0227,0.0023,-0.0064,0.0001,-19.7102,1.4554,-43.2789,
3.0380,0.1085,-0.0411,1.0267,-0.0218,-0.0037,0.0227,0.0023,-0.0064,0.0001,-19.7102,1.4554,-43.2789,
3.0840,0.1085,-0.0411,1.0267,-0.0218,-0.0037,0.0227,0.0054,-0.0232,-0.0014,-19.7102,1.4554,-43.2789,
3.0840,0.1053,-0.0370,1.0295,-0.0218,-0.0037,0.0227,0.0054,-0.0232,-0.0014,-19.7102,1.4554,-43.2789,
3.0850,0.1017,-0.0373,1.0291,-0.0218,-0.0037,0.0227,0.0054,-0.0232,-0.0014,-19.7102,1.4554,-43.2789,
3.0850,0.1017,-0.0373,1.0291,-0.0218,-0.0037,0.0227,0.0054,-0.0232,-0.0014,-19.7364,1.4256,-43.2560,
3.1060,0.1036,-0.0397,1.0119,-0.0218,-0.0037,0.0227,0.0054,-0.0232,-0.0014,-19.7364,1.4256,-43.2560,
3.1140,0.1036,-0.0397,1.0119,0.0004,-0.0102,-0.0042,0.0054,-0.0232,-0.0014,-19.7364,1.4256,-43.2560,
3.1150,0.1036,-0.0397,1.0119,0.0004,-0.0102,-0.0042,0.0048,-0.0162,-0.0020,-19.7364,1.4256,-43.2560,
3.1150,0.1097,-0.0393,0.9953,0.0004,-0.0102,-0.0042,0.0048,-0.0162,-0.0020,-19.7364,1.4256,-43.2560,
3.1500,0.1097,-0.0393,0.9953,0.0004,-0.0102,-0.0042,0.0048,-0.0162,-0.0020,-19.7623,1.4061,-43.2196,
3.1510,0.1108,-0.0325,1.0389,0.0004,-0.0102,-0.0042,0.0048,-0.0162,-0.0020,-19.7623,1.4061,-43.2196,
3.1730,0.1147,-0.0355,1.0365,0.0004,-0.0102,-0.0042,0.0048,-0.0162,-0.0020,-19.7623,1.4061,-43.2196,
3.1740,0.1153,-0.0404,0.9965,0.0004,-0.0102,-0.0042,0.0048,-0.0162,-0.0020,-19.7623,1.4061,-43.2196,
3.1750,0.1153,-0.0404,0.9965,0.0004,-0.0102,-0.0042,-0.0065,0.0116,0.0014,-19.7623,1.4061,-43.2196,
3.1750,0.1153,-0.0404,0.9965,-0.0251,0.0031,-0.0631,-0.0065,0.0116,0.0014,-19.7623,1.4061,-43.2196,
3.2180,0.1153,-0.0404,0.9965,-0.0251,0.0031,-0.0631,0.0011,0.0214,0.0001,-19.7623,1.4061,-43.2196,
3.2190,0.1046,-0.0406,1.0269,-0.0251,0.0031,-0.0631,0.0011,0.0214,0.0001,-19.7623,1.4061,-43.2196,
3.2190,0.0949,-0.0419,1.0352,-0.0251,0.0031,-0.0631,0.0011,0.0214,0.0001,-19.7623,1.4061,-43.2196,
3.2200,0.0949,-0.0419,1.0352,-0.0251,0.0031,-0.0631,0.0011,0.0214,0.0001,-19.7484,1.4357,-43.2301,
3.2380,0.0949,-0.0419,1.0352,-0.0251,0.0031,-0.0631,0.0023,-0.0104,0.0066,-19.7484,1.4357,-43.2301,
3.2390,0.0959,-0.0398,1.0152,-0.0251,0.0031,-0.0631,0.0023,-0.0104,0.0066,-19.7484,1.4357,-43.2301,
3.2500,0.0959,-0.0398,1.0152,0.0428,0.0180,0.0094,0.0023,-0.0104,0.0066,-19.7484,1.4357,-43.2301,
3.2510,0.1003,-0.0380,1.0227,0.0428,0.0180,0.0094,0.0023,-0.0104,0.0066,-19.7484,1.4357,-43.2301,
3.2850,0.1003,-0.0380,1.0227,0.0428,0.0180,0.0094,-0.0035,-0.0113,0.0020,-19.7484,1.4357,-43.2301,
3.2860,0.1003,-0.0380,1.0227,0.0428,0.0180,0.0094,-0.0035,-0.0113,0.0020,-19.7479,1.4565,-43.1903,
3.2870,0.1094,-0.0392,1.0240,0.0428,0.0180,0.0094,-0.0035,-0.0113,0.0020,-19.7479,1.4565,-43.1903,
3.3060,0.1163,-0.0406,1.0233,0.0428,0.0180,0.0094,-0.0035,-0.0113,0.0020,-19.7479,1.4565,-43.1903,
3.3080,0.1163,-0.0406,1.0233,0.0428,0.0180,0.0094,-0.0013,-0.0064,-0.0050,-19.7479,1.4565,-43.1903,
3.3090,0.1165,-0.0426,1.0244,0.0428,0.0180,0.0094,-0.0013,-0.0064,-0.0050,-19.7479,1.4565,-43.1903,
3.3100,0.1165,-0.0426,1.0244,-0.0993,-0.0111,0.0438,-0.0013,-0.0064,-0.0050,-19.7479,1.4565,-43.1903,
3.3520,0.1165,-0.0426,1.0244,-0.0993,-0.0111,0.0438,0.0036,0.0024,-0.0002,-19.7479,1.4565,-43.1903,
3.3540,0.1141,-0.0403,1.0211,-0.0993,-0.0111,0.0438,0.0036,0.0024,-0.0002,-19.7479,1.4565,-43.1903,
3.3540,0.1094,-0.0387,1.0189,-0.0993,-0.0111,0.0438,0.0036,0.0024,-0.0002,-19.7479,1.4565,-43.1903,
3.3550,0.1094,-0.0387,1.0189,-0.0993,-0.0111,0.0438,0.0036,0.0024,-0.0002,-19.8109,1.4145,-43.1951,
3.3710,0.1061,-0.0389,1.0200,-0.0993,-0.0111,0.0438,0.0036,0.0024,-0.0002,-19.8109,1.4145,-43.1951,
3.3870,0.1061,-0.0389,1.0200,0.0593,-0.0205,0.0128,0.0036,0.0024,-0.0002,-19.8109,1.4145,-43.1951,
3.3890,0.1061,-0.0389,1.0200,0.0593,-0.0205,0.0128,0.0048,0.0039,0.0020,-19.8109,1.4145,-43.1951,
3.3890,0.1038,-0.0388,1.0206,0.0593,-0.0205,0.0128,0.0048,0.0039,0.0020,-19.8109,1.4145,-43.1951,
3.4160,0.1022,-0.0392,1.0213,0.0593,-0.0205,0.0128,0.0048,0.0039,0.0020,-19.8109,1.4145,-43.1951,
3.4170,0.1022,-0.0392,1.0213,0.0593,-0.0205,0.0128,0.0048,0.0039,0.0020,-19.8488,1.4051,-43.1328,
3.4380,0.1041,-0.0397,1.0271,0.0593,-0.0205,0.0128,0.0048,0.0039,0.0020,-19.8488,1.4051,-43.1328,
3.4390,0.1041,-0.0397,1.0271,0.0593,-0.0205,0.0128,0.0057,-0.0037,0.0005,-19.8488,1.4051,-43.1328,
3.4460,0.1041,-0.0397,1.0271,-0.0107,-0.0046,-0.0209,0.0057,-0.0037,0.0005,-19.8488,1.4051,-43.1328,
3.4460,0.1050,-0.0402,1.0258,-0.0107,-0.0046,-0.0209,0.0057,-0.0037,0.0005,-19.8488,1.4051,-43.1328,
3.4850,0.1061,-0.0386,1.0192,-0.0107,-0.0046,-0.0209,0.0057,-0.0037,0.0005,-19.8488,1.4051,-43.1328,
3.4860,0.1061,-0.0386,1.0192,-0.0107,-0.0046,-0.0209,0.0054,-0.0132,-0.0026,-19.8488,1.4051,-43.1328,
3.4860,0.1061,-0.0386,1.0192,-0.0107,-0.0046,-0.0209,0.0054,-0.0132,-0.0026,-19.8112,1.4264,-43.1301,
3.5050,0.1102,-0.0359,1.0098,-0.0107,-0.0046,-0.0209,0.0054,-0.0132,-0.0026,-19.8112,1.4264,-43.1301,
3.5060,0.1109,-0.0367,1.0236,-0.0107,-0.0046,-0.0209,0.0054,-0.0132,-0.0026,-19.8112,1.4264,-43.1301,
3.5070,0.1109,-0.0367,1.0236,-0.0107,-0.0046,-0.0209,0.0008,-0.0061,-0.0005,-19.8112,1.4264,-43.1301,
3.5240,0.1109,-0.0367,1.0236,-0.0428,-0.0106,0.0172,0.0008,-0.0061,-0.0005,-19.8112,1.4264,-43.1301,
3.5250,0.1077,-0.0411,1.0191,-0.0428,-0.0106,0.0172,0.0008,-0.0061,-0.0005,-19.8112,1.4264,-43.1301,
3.5500,0.1077,-0.0411,1.0191,-0.0428,-0.0106,0.0172,0.0008,-0.0061,-0.0005,-19.8851,1.4027,-43.1599,
3.5510,0.1048,-0.0378,1.0239,-0.0428,-0.0106,0.0172,0.0008,-0.0061,-0.0005,-19.8851,1.4027,-43.1599,
3.5510,0.1048,-0.0378,1.0239,-0.0428,-0.0106,0.0172,-0.0016,-0.0061,0.0017,-19.8851,1.4027,-43.1599,
3.5710,0.1027,-0.0369,1.0230,-0.0428,-0.0106,0.0172,-0.0016,-0.0061,0.0017,-19.8851,1.4027,-43.1599,
3.5820,0.1026,-0.0367,1.0260,-0.0428,-0.0106,0.0172,-0.0016,-0.0061,0.0017,-19.8851,1.4027,-43.1599,
3.5830,0.1026,-0.0367,1.0260,-0.0428,-0.0106,0.0172,0.0069,-0.0113,0.0011,-19.8851,1.4027,-43.1599,
3.5830,0.1026,-0.0367,1.0260,-0.0010,0.0022,-0.0374,0.0069,-0.0113,0.0011,-19.8851,1.4027,-43.1599,
3.6170,0.1026,-0.0367,1.0260,-0.0010,0.0022,-0.0374,0.0069,-0.0113,0.0011,-19.9573,1.4080,-43.2006,
3.6190,0.1055,-0.0378,1.0257,-0.0010,0.0022,-0.0374,0.0069,-0.0113,0.0011,-19.9573,1.4080,-43.2006,
3.6400,0.1116,-0.0397,1.0208,-0.0010,0.0022,-0.0374,0.0069,-0.0113,0.0011,-19.9573,1.4080,-43.2006,
3.6410,0.1116,-0.0397,1.0208,-0.0010,0.0022,-0.0374,0.0103,-0.0162,0.0014,-19.9573,1.4080,-43.2006,
3.6600,0.1116,-0.0397,1.0208,-0.0010,0.0022,-0.0374,0.0088,-0.0171,-0.0011,-19.9573,1.4080,-43.2006,
3.6610,0.1146,-0.0402,1.0229,-0.0010,0.0022,-0.0374,0.0088,-0.0171,-0.0011,-19.9573,1.4080,-43.2006,
3.6620,0.1152,-0.0399,1.0200,-0.0010,0.0022,-0.0374,0.0088,-0.0171,-0.0011,-19.9573,1.4080,-43.2006,
3.6620,0.1152,-0.0399,1.0200,-0.0614,0.0029,0.0297,0.0088,-0.0171,-0.0011,-19.9573,1.4080,-43.2006,
3.6830,0.1133,-0.0383,1.0180,-0.0614,0.0029,0.0297,0.0088,-0.0171,-0.0011,-19.9573,1.4080,-43.2006,
3.6840,0.1133,-0.0383,1.0180,-0.0614,0.0029,0.0297,0.0088,-0.0171,-0.0011,-19.9938,1.4064,-43.2020,
3.7050,0.1119,-0.0381,1.0201,-0.0614,0.0029,0.0297,0.0088,-0.0171,-0.0011,-19.9938,1.4064,-43.2020,
3.7060,0.1119,-0.0381,1.0201,-0.0614,0.0029,0.0297,0.0088,-0.0132,-0.0020,-19.9938,1.4064,-43.2020,
3.7180,0.1088,-0.0384,1.0197,-0.0614,0.0029,0.0297,0.0088,-0.0132,-0.0020,-19.9938,1.4064,-43.2020,
3.7190,0.1088,-0.0384,1.0197,0.0217,-0.0244,-0.0034,0.0088,-0.0132,-0.0020,-19.9938,1.4064,-43.2020,
3.7500,0.1088,-0.0384,1.0197,0.0217,-0.0244,-0.0034,0.0072,-0.0092,-0.0011,-19.9938,1.4064,-43.2020,
3.7510,0.1087,-0.0376,1.0195,0.0217,-0.0244,-0.0034,0.0072,-0.0092,-0.0011,-19.9938,1.4064,-43.2020,
3.7510,0.1087,-0.0376,1.0195,0.0217,-0.0244,-0.0034,0.0072,-0.0092,-0.0011,-20.0311,1.3953,-43.1911,
3.7720,0.1091,-0.0381,1.0201,0.0217,-0.0244,-0.0034,0.0072,-0.0092,-0.0011,-20.0311,1.3953,-43.1911,
3.7970,0.1091,-0.0381,1.0201,0.0217,-0.0244,-0.0034,0.0072,-0.0077,0.0005,-20.0311,1.3953,-43.1911,
3.7980,0.1099,-0.0375,1.0212,0.0217,-0.0244,-0.0034,0.0072,-0.0077,0.0005,-20.0311,1.3953,-43.1911,
3.7990,0.1105,-0.0358,1.0246,0.0217,-0.0244,-0.0034,0.0072,-0.0077,0.0005,-20.0311,1.3953,-43.1911,
3.7990,0.1105,-0.0358,1.0246,-0.0023,-0.0125,-0.0212,0.0072,-0.0077,0.0005,-20.0311,1.3953,-43.1911,
3.8180,0.1105,-0.0359,1.0213,-0.0023,-0.0125,-0.0212,0.0072,-0.0077,0.0005,-20.0311,1.3953,-43.1911,
3.8190,0.1105,-0.0359,1.0213,-0.0023,-0.0125,-0.0212,0.0072,-0.0077,0.0005,-20.0684,1.3733,-43.2195,
3.8200,0.1105,-0.0359,1.0213,-0.0023,-0.0125,-0.0212,0.0060,-0.0101,0.0014,-20.0684,1.3733,-43.2195,
3.8380,0.1098,-0.0365,1.0207,-0.0023,-0.0125,-0.0212,0.0060,-0.0101,0.0014,-20.0684,1.3733,-43.2195,
3.8560,0.1098,-0.0365,1.0207,-0.0230,-0.0048,0.0021,0.0060,-0.0101,0.0014,-20.0684,1.3733,-43.2195,
3.8570,0.1098,-0.0365,1.0207,-0.0230,-0.0048,0.0021,0.0039,-0.0138,0.0011,-20.0684,1.3733,-43.2195,
3.8580,0.1088,-0.0358,1.0196,-0.0230,-0.0048,0.0021,0.0039,-0.0138,0.0011,-20.0684,1.3733,-43.2195,
3.8830,0.1088,-0.0358,1.0196,-0.0230,-0.0048,0.0021,0.0039,-0.0138,0.0011,-20.1055,1.3728,-43.1823,
3.8840,0.1111,-0.0340,1.0186,-0.0230,-0.0048,0.0021,0.0039,-0.0138,0.0011,-20.1055,1.3728,-43.1823,
3.9050,0.1111,-0.0340,1.0186,-0.0230,-0.0048,0.0021,0.0005,-0.0184,0.0023,-20.1055,1.3728,-43.1823,
3.9060,0.1151,-0.0354,1.0136,-0.0230,-0.0048,0.0021,0.0005,-0.0184,0.0023,-20.1055,1.3728,-43.1823,
3.9340,0.1151,-0.0354,1.0136,-0.0271,0.0077,-0.0070,0.0005,-0.0184,0.0023,-20.1055,1.3728,-43.1823,
3.9350,0.1151,-0.0354,1.0136,-0.0271,0.0077,-0.0070,-0.0007,-0.0101,0.0011,-20.1055,1.3728,-43.1823,
3.9350,0.1158,-0.0388,1.0249,-0.0271,0.0077,-0.0070,-0.0007,-0.0101,0.0011,-20.1055,1.3728,-43.1823,
3.9350,0.1162,-0.0388,1.0239,-0.0271,0.0077,-0.0070,-0.0007,-0.0101,0.0011,-20.1055,1.3728,-43.1823,
3.9500,0.1162,-0.0388,1.0239,-0.0271,0.0077,-0.0070,-0.0007,-0.0101,0.0011,-20.1541,1.3703,-43.1970,
3.9710,0.1097,-0.0366,1.0357,-0.0271,0.0077,-0.0070,-0.0007,-0.0101,0.0011,-20.1541,1.3703,-43.1970,
3.9730,0.1097,-0.0366,1.0357,-0.0271,0.0077,-0.0070,0.0066,-0.0257,-0.0008,-20.1541,1.3703,-43.1970,
3.9730,0.1099,-0.0370,1.0178,-0.0271,0.0077,-0.0070,0.0066,-0.0257,-0.0008,-20.1541,1.3703,-43.1970,
3.9920,0.1118,-0.0358,1.0097,-0.0271,0.0077,-0.0070,0.0066,-0.0257,-0.0008,-20.1541,1.3703,-43.1970,
3.9930,0.1118,-0.0358,1.0097,0.0116,-0.0076,-0.0072,0.0066,-0.0257,-0.0008,-20.1541,1.3703,-43.1970,
4.0170,0.1118,-0.0358,1.0097,0.0116,-0.0076,-0.0072,-0.0016,-0.0052,0.0011,-20.1541,1.3703,-43.1970,
4.0180,0.1198,-0.0342,0.9920,0.0116,-0.0076,-0.0072,-0.0016,-0.0052,0.0011,-20.1541,1.3703,-43.1970,
4.0180,0.1198,-0.0342,0.9920,0.0116,-0.0076,-0.0072,-0.0016,-0.0052,0.0011,-20.2879,1.3635,-43.2278,
4.0390,0.1141,-0.0311,1.0490,0.0116,-0.0076,-0.0072,-0.0016,-0.0052,0.0011,-20.2879,1.3635,-43.2278,
4.0710,0.1141,-0.0311,1.0490,-0.0124,0.0053,-0.0432,-0.0016,-0.0052,0.0011,-20.2879,1.3635,-43.2278,
4.0720,0.1229,-0.0373,1.0159,-0.0124,0.0053,-0.0432,-0.0016,-0.0052,0.0011,-20.2879,1.3635,-43.2278,
4.0740,0.1171,-0.0399,0.9995,-0.0124,0.0053,-0.0432,-0.0016,-0.0052,0.0011,-20.2879,1.3635,-43.2278,
4.0750,0.1171,-0.0399,0.9995,-0.0124,0.0053,-0.0432,-0.0016,0.0140,0.0047,-20.2879,1.3635,-43.2278,
4.0840,0.1171,-0.0399,0.9995,-0.0124,0.0053,-0.0432,-0.0016,0.0140,0.0047,-20.2870,1.3835,-43.2137,
4.1050,0.1171,-0.0399,0.9995,-0.0124,0.0053,-0.0432,-0.0086,0.0217,0.0038,-20.2870,1.3835,-43.2137,
4.1060,0.1057,-0.0391,1.0432,-0.0124,0.0053,-0.0432,-0.0086,0.0217,0.0038,-20.2870,1.3835,-43.2137,
4.1280,0.1057,-0.0391,1.0432,-0.0124,0.0053,-0.0432,-0.0004,-0.0159,0.0053,-20.2870,1.3835,-43.2137,
4.1290,0.0992,-0.0417,1.0274,-0.0124,0.0053,-0.0432,-0.0004,-0.0159,0.0053,-20.2870,1.3835,-43.2137,
4.1300,0.1005,-0.0364,1.0192,-0.0124,0.0053,-0.0432,-0.0004,-0.0159,0.0053,-20.2870,1.3835,-43.2137,
4.1300,0.1005,-0.0364,1.0192,0.0480,0.0092,-0.0212,-0.0004,-0.0159,0.0053,-20.2870,1.3835,-43.2137,
4.1500,0.1077,-0.0339,1.0188,0.0480,0.0092,-0.0212,-0.0004,-0.0159,0.0053,-20.2870,1.3835,-43.2137,
4.1510,0.1077,-0.0339,1.0188,0.0480,0.0092,-0.0212,-0.0004,-0.0159,0.0053,-20.2892,1.3557,-43.1641,
4.1710,0.1192,-0.0373,1.0222,0.0480,0.0092,-0.0212,-0.0004,-0.0159,0.0053,-20.2892,1.3557,-43.1641,
4.1720,0.1192,-0.0373,1.0222,0.0480,0.0092,-0.0212,-0.0086,-0.0138,-0.0014,-20.2892,1.3557,-43.1641,
4.2080,0.1252,-0.0397,1.0212,0.0480,0.0092,-0.0212,-0.0086,-0.0138,-0.0014,-20.2892,1.3557,-43.1641,
4.2100,0.1252,-0.0397,1.0212,-0.1079,-0.0089,0.0731,-0.0086,-0.0138,-0.0014,-20.2892,1.3557,-43.1641,
4.2110,0.1234,-0.0398,1.0170,-0.1079,-0.0089,0.0731,-0.0086,-0.0138,-0.0014,-20.2892,1.3557,-43.1641,
4.2120,0.1234,-0.0398,1.0170,-0.1079,-0.0089,0.0731,-0.0047,-0.0144,-0.0047,-20.2892,1.3557,-43.1641,
4.2170,0.1234,-0.0398,1.0170,-0.1079,-0.0089,0.0731,-0.0047,-0.0144,-0.0047,-20.3126,1.3742,-43.1638,
4.2390,0.1187,-0.0393,1.0255,-0.1079,-0.0089,0.0731,-0.0047,-0.0144,-0.0047,-20.3126,1.3742,-43.1638,
4.2650,0.1187,-0.0393,1.0255,0.0671,-0.0050,-0.0108,-0.0047,-0.0144,-0.0047,-20.3126,1.3742,-43.1638,
4.2670,0.1133,-0.0392,1.0233,0.0671,-0.0050,-0.0108,-0.0047,-0.0144,-0.0047,-20.3126,1.3742,-43.1638,
4.2670,0.1085,-0.0393,1.0255,0.0671,-0.0050,-0.0108,-0.0047,-0.0144,-0.0047,-20.3126,1.3742,-43.1638,
4.2680,0.1085,-0.0393,1.0255,0.0671,-0.0050,-0.0108,-0.0044,0.0018,0.0038,-20.3126,1.3742,-43.1638,
4.2840,0.1085,-0.0393,1.0255,0.0671,-0.0050,-0.0108,-0.0044,0.0018,0.0038,-20.3127,1.3856,-43.1117,
4.3060,0.1085,-0.0393,1.0255,0.0671,-0.0050,-0.0108,-0.0001,0.0012,0.0008,-20.3127,1.3856,-43.1117,
4.3080,0.1079,-0.0381,1.0255,0.0671,-0.0050,-0.0108,-0.0001,0.0012,0.0008,-20.3127,1.3856,-43.1117,
4.3080,0.1093,-0.0381,1.0208,0.0671,-0.0050,-0.0108,-0.0001,0.0012,0.0008,-20.3127,1.3856,-43.1117,
4.3440,0.1093,-0.0381,1.0208,-0.0178,-0.0162,0.0342,-0.0001,0.0012,0.0008,-20.3127,1.3856,-43.1117,
4.3450,0.1111,-0.0376,1.0236,-0.0178,-0.0162,0.0342,-0.0001,0.0012,0.0008,-20.3127,1.3856,-43.1117,
4.3450,0.1111,-0.0376,1.0236,-0.0178,-0.0162,0.0342,0.0066,-0.0104,-0.0035,-20.3127,1.3856,-43.1117,
4.3460,0.1118,-0.0381,1.0199,-0.0178,-0.0162,0.0342,0.0066,-0.0104,-0.0035,-20.3127,1.3856,-43.1117,
4.3490,0.1118,-0.0381,1.0199,-0.0178,-0.0162,0.0342,0.0066,-0.0104,-0.0035,-20.3108,1.4363,-43.0571,
4.3710,0.1120,-0.0377,1.0175,-0.0178,-0.0162,0.0342,0.0066,-0.0104,-0.0035,-20.3108,1.4363,-43.0571,
4.3720,0.1120,-0.0377,1.0175,-0.0178,-0.0162,0.0342,0.0023,-0.0165,-0.0029,-20.3108,1.4363,-43.0571,
4.4020,0.1120,-0.0377,1.0175,-0.0428,-0.0013,0.0080,0.0023,-0.0165,-0.0029,-20.3108,1.4363,-43.0571,
4.4030,0.1120,-0.0377,1.0175,-0.0428,-0.0013,0.0080,-0.0047,-0.0074,0.0020,-20.3108,1.4363,-43.0571,
4.4030,0.1176,-0.0340,1.0145,-0.0428,-0.0013,0.0080,-0.0047,-0.0074,0.0020,-20.3108,1.4363,-43.0571,
4.4040,0.1180,-0.0358,1.0290,-0.0428,-0.0013,0.0080,-0.0047,-0.0074,0.0020,-20.3108,1.4363,-43.0571,
4.4180,0.1180,-0.0358,1.0290,-0.0428,-0.0013,0.0080,-0.0047,-0.0074,0.0020,-20.3098,1.4560,-43.0558,
4.4390,0.1168,-0.0402,1.0205,-0.0428,-0.0013,0.0080,-0.0047,-0.0074,0.0020,-20.3098,1.4560,-43.0558,
4.4810,0.1168,-0.0402,1.0205,0.0054,0.0130,-0.0044,-0.0047,-0.0074,0.0020,-20.3098,1.4560,-43.0558,
4.4820,0.1168,-0.0402,1.0205,0.0054,0.0130,-0.0044,-0.0041,-0.0089,0.0029,-20.3098,1.4560,-43.0558,
4.4830,0.1138,-0.0397,1.0225,0.0054,0.0130,-0.0044,-0.0041,-0.0089,0.0029,-20.3098,1.4560,-43.0558,
4.4830,0.1138,-0.0397,1.0225,0.0054,0.0130,-0.0044,0.0008,-0.0138,0.0005,-20.3098,1.4560,-43.0558,
4.4830,0.1109,-0.0383,1.0223,0.0054,0.0130,-0.0044,0.0008,-0.0138,0.0005,-20.3098,1.4560,-43.0558,
4.4840,0.1115,-0.0366,1.0247,0.0054,0.0130,-0.0044,0.0008,-0.0138,0.0005,-20.3098,1.4560,-43.0558,
4.4840,0.1115,-0.0366,1.0247,0.0054,0.0130,-0.0044,0.0008,-0.0138,0.0005,-20.3108,1.4474,-43.0178,
4.5060,0.1144,-0.0367,1.0205,0.0054,0.0130,-0.0044,0.0008,-0.0138,0.0005,-20.3108,1.4474,-43.0178,
4.5390,0.1182,-0.0377,1.0188,0.0054,0.0130,-0.0044,0.0008,-0.0138,0.0005,-20.3108,1.4474,-43.0178,
4.5400,0.1182,-0.0377,1.0188,0.0054,0.0130,-0.0044,0.0051,-0.0159,-0.0011,-20.3108,1.4474,-43.0178,
4.5410,0.1182,-0.0377,1.0188,-0.0329,-0.0097,0.0126,0.0051,-0.0159,-0.0011,-20.3108,1.4474,-43.0178,
4.5420,0.1217,-0.0380,1.0199,-0.0329,-0.0097,0.0126,0.0051,-0.0159,-0.0011,-20.3108,1.4474,-43.0178,
4.5510,0.1217,-0.0380,1.0199,-0.0329,-0.0097,0.0126,0.0051,-0.0159,-0.0011,-20.2750,1.4510,-42.9521,
4.5720,0.1217,-0.0380,1.0199,-0.0329,-0.0097,0.0126,0.0005,-0.0043,0.0020,-20.2750,1.4510,-42.9521,
4.5740,0.1198,-0.0399,1.0197,-0.0329,-0.0097,0.0126,0.0005,-0.0043,0.0020,-20.2750,1.4510,-42.9521,
4.6170,0.1171,-0.0383,1.0233,-0.0329,-0.0097,0.0126,0.0005,-0.0043,0.0020,-20.2750,1.4510,-42.9521,
4.6180,0.1171,-0.0383,1.0233,0.0206,-0.0008,-0.0133,0.0005,-0.0043,0.0020,-20.2750,1.4510,-42.9521,
4.6180,0.1171,-0.0383,1.0233,0.0206,-0.0008,-0.0133,-0.0025,-0.0006,0.0020,-20.2750,1.4510,-42.9521,
4.6190,0.1154,-0.0391,1.0219,0.0206,-0.0008,-0.0133,-0.0025,-0.0006,0.0020,-20.2750,1.4510,-42.9521,
4.6200,0.1143,-0.0383,1.0217,0.0206,-0.0008,-0.0133,-0.0025,-0.0006,0.0020,-20.2750,1.4510,-42.9521,
4.6200,0.1143,-0.0383,1.0217,0.0206,-0.0008,-0.0133,-0.0025,-0.0006,0.0020,-20.2400,1.4232,-42.9526,
4.6380,0.1135,-0.0388,1.0216,0.0206,-0.0008,-0.0133,-0.0025,-0.0006,0.0020,-20.2400,1.4232,-42.9526,
4.6390,0.1135,-0.0388,1.0216,0.0206,-0.0008,-0.0133,-0.0013,-0.0006,-0.0002,-20.2400,1.4232,-42.9526,
4.6750,0.1142,-0.0377,1.0186,0.0206,-0.0008,-0.0133,-0.0013,-0.0006,-0.0002,-20.2400,1.4232,-42.9526,
4.6760,0.1142,-0.0377,1.0186,0.0206,-0.0008,-0.0133,-0.0031,0.0009,0.0005,-20.2400,1.4232,-42.9526,
4.6760,0.1152,-0.0375,1.0205,0.0206,-0.0008,-0.0133,-0.0031,0.0009,0.0005,-20.2400,1.4232,-42.9526,
4.6770,0.1152,-0.0375,1.0205,-0.0006,-0.0067,0.0082,-0.0031,0.0009,0.0005,-20.2400,1.4232,-42.9526,
4.6840,0.1152,-0.0375,1.0205,-0.0006,-0.0067,0.0082,-0.0031,0.0009,0.0005,-20.2010,1.4633,-42.9745,
4.7050,0.1158,-0.0376,1.0227,-0.0006,-0.0067,0.0082,-0.0031,0.0009,0.0005,-20.2010,1.4633,-42.9745,
4.7530,0.1160,-0.0386,1.0189,-0.0006,-0.0067,0.0082,-0.0031,0.0009,0.0005,-20.2010,1.4633,-42.9745,
4.7550,0.1160,-0.0386,1.0189,-0.0006,-0.0067,0.0082,-0.0059,0.0006,0.0017,-20.2010,1.4633,-42.9745,
4.7560,0.1147,-0.0386,1.0212,-0.0006,-0.0067,0.0082,-0.0059,0.0006,0.0017,-20.2010,1.4633,-42.9745,
4.7570,0.1147,-0.0386,1.0212,-0.0006,-0.0067,0.0082,-0.0059,0.0006,0.0017,-20.1758,1.4734,-42.9987,
4.7590,0.1148,-0.0389,1.0269,-0.0006,-0.0067,0.0082,-0.0059,0.0006,0.0017,-20.1758,1.4734,-42.9987,
4.7590,0.1148,-0.0389,1.0269,-0.0006,-0.0067,0.0082,-0.0090,0.0030,0.0008,-20.1758,1.4734,-42.9987,
4.7600,0.1148,-0.0389,1.0269,-0.0154,0.0062,-0.0036,-0.0090,0.0030,0.0008,-20.1758,1.4734,-42.9987,
4.8140,0.1148,-0.0389,1.0269,-0.0057,0.0022,0.0105,-0.0090,0.0030,0.0008,-20.1758,1.4734,-42.9987,
4.8160,0.1148,-0.0389,1.0269,-0.0057,0.0022,0.0105,-0.0050,-0.0058,0.0008,-20.1758,1.4734,-42.9987,
4.8160,0.1155,-0.0377,1.0240,-0.0057,0.0022,0.0105,-0.0050,-0.0058,0.0008,-20.1758,1.4734,-42.9987,
4.8170,0.1157,-0.0372,1.0181,-0.0057,0.0022,0.0105,-0.0050,-0.0058,0.0008,-20.1758,1.4734,-42.9987,
4.8180,0.1177,-0.0424,1.0199,-0.0057,0.0022,0.0105,-0.0050,-0.0058,0.0008,-20.1758,1.4734,-42.9987,
4.8180,0.1177,-0.0424,1.0199,-0.0057,0.0022,0.0105,-0.0050,-0.0058,0.0008,-20.1756,1.4620,-43.0508,
4.8390,0.1188,-0.0427,1.0222,-0.0057,0.0022,0.0105,-0.0050,-0.0058,0.0008,-20.1756,1.4620,-43.0508,
4.8410,0.1188,-0.0427,1.0222,-0.0057,0.0022,0.0105,-0.0065,0.0006,0.0008,-20.1756,1.4620,-43.0508,
4.8840,0.1188,-0.0427,1.0222,-0.0057,0.0022,0.0105,0.0051,-0.0251,-0.0014,-20.1756,1.4620,-43.0508,
4.8860,0.1188,-0.0427,1.0222,-0.0057,0.0022,0.0105,0.0051,-0.0251,-0.0014,-20.2022,1.4220,-43.0413,
4.8870,0.1133,-0.0378,1.0431,-0.0057,0.0022,0.0105,0.0051,-0.0251,-0.0014,-20.2022,1.4220,-43.0413,
4.8880,0.1129,-0.0388,1.0163,-0.0057,0.0022,0.0105,0.0051,-0.0251,-0.0014,-20.2022,1.4220,-43.0413,
4.8900,0.1127,-0.0398,1.0036,-0.0057,0.0022,0.0105,0.0051,-0.0251,-0.0014,-20.2022,1.4220,-43.0413,
4.8910,0.1127,-0.0398,1.0036,-0.0075,-0.0102,-0.0063,0.0051,-0.0251,-0.0014,-20.2022,1.4220,-43.0413,
4.9500,0.1127,-0.0398,1.0036,-0.0280,-0.0033,0.0068,0.0051,-0.0251,-0.0014,-20.2022,1.4220,-43.0413,
4.9520,0.1127,-0.0398,1.0036,-0.0280,-0.0033,0.0068,0.0011,-0.0184,-0.0020,-20.2022,1.4220,-43.0413,
4.9520,0.1127,-0.0398,1.0036,-0.0280,-0.0033,0.0068,-0.0083,0.0101,0.0041,-20.2022,1.4220,-43.0413,
4.9530,0.1207,-0.0394,0.9979,-0.0280,-0.0033,0.0068,-0.0083,0.0101,0.0041,-20.2022,1.4220,-43.0413,
4.9540,0.1230,-0.0367,1.0410,-0.0280,-0.0033,0.0068,-0.0083,0.0101,0.0041,-20.2022,1.4220,-43.0413,
4.9540,0.1253,-0.0365,1.0341,-0.0280,-0.0033,0.0068,-0.0083,0.0101,0.0041,-20.2022,1.4220,-43.0413,
4.9550,0.1253,-0.0365,1.0341,-0.0280,-0.0033,0.0068,-0.0083,0.0101,0.0041,-20.2386,1.4310,-43.0163,
4.9730,0.1239,-0.0380,0.9971,-0.0280,-0.0033,0.0068,-0.0083,0.0101,0.0041,-20.2386,1.4310,-43.0163,
5.0180,0.1239,-0.0380,0.9971,-0.0280,-0.0033,0.0068,-0.0013,0.0351,0.0050,-20.2386,1.4310,-43.0163,
5.0200,0.1239,-0.0380,0.9971,-0.0280,-0.0033,0.0068,-0.0013,0.0351,0.0050,-20.2513,1.4316,-42.9782,
5.0210,0.1137,-0.0383,1.0371,-0.0280,-0.0033,0.0068,-0.0013,0.0351,0.0050,-20.2513,1.4316,-42.9782,
5.0210,0.1061,-0.0424,1.0376,-0.0280,-0.0033,0.0068,-0.0013,0.0351,0.0050,-20.2513,1.4316,-42.9782,
5.0270,0.1061,-0.0424,1.0376,0.0696,0.0126,-0.0081,-0.0013,0.0351,0.0050,-20.2513,1.4316,-42.9782,
5.0280,0.1061,-0.0424,1.0376,0.0696,0.0126,-0.0081,0.0051,0.0012,0.0072,-20.2513,1.4316,-42.9782,
5.0280,0.1043,-0.0422,1.0178,0.0696,0.0126,-0.0081,0.0051,0.0012,0.0072,-20.2513,1.4316,-42.9782,
5.0840,0.1037,-0.0386,1.0186,0.0696,0.0126,-0.0081,0.0051,0.0012,0.0072,-20.2513,1.4316,-42.9782,
5.0850,0.1037,-0.0386,1.0186,0.0696,0.0126,-0.0081,0.0023,-0.0116,-0.0020,-20.2513,1.4316,-42.9782,
5.0860,0.1037,-0.0386,1.0186,0.0696,0.0126,-0.0081,0.0023,-0.0116,-0.0020,-20.2730,1.4682,-43.0281,
5.0870,0.1125,-0.0391,1.0186,0.0696,0.0126,-0.0081,0.0023,-0.0116,-0.0020,-20.2730,1.4682,-43.0281,
5.0880,0.1223,-0.0395,1.0233,0.0696,0.0126,-0.0081,0.0023,-0.0116,-0.0020,-20.2730,1.4682,-43.0281,
5.0880,0.1223,-0.0395,1.0233,-0.0614,-0.0144,0.0451,0.0023,-0.0116,-0.0020,-20.2730,1.4682,-43.0281,
5.1060,0.1261,-0.0411,1.0232,-0.0614,-0.0144,0.0451,0.0023,-0.0116,-0.0020,-20.2730,1.4682,-43.0281,
5.1070,0.1261,-0.0411,1.0232,-0.0614,-0.0144,0.0451,0.0002,-0.0071,-0.0069,-20.2730,1.4682,-43.0281,
5.1520,0.1261,-0.0411,1.0232,-0.0614,-0.0144,0.0451,0.0042,0.0052,0.0035,-20.2730,1.4682,-43.0281,
5.1540,0.1261,-0.0411,1.0232,-0.0614,-0.0144,0.0451,0.0042,0.0052,0.0035,-20.3439,1.5259,-42.9627,
5.1550,0.1219,-0.0399,1.0240,-0.0614,-0.0144,0.0451,0.0042,0.0052,0.0035,-20.3439,1.5259,-42.9627,
5.1560,0.1180,-0.0406,1.0184,-0.0614,-0.0144,0.0451,0.0042,0.0052,0.0035,-20.3439,1.5259,-42.9627,
5.1630,0.1144,-0.0395,1.0188,-0.0614,-0.0144,0.0451,0.0042,0.0052,0.0035,-20.3439,1.5259,-42.9627,
5.1640,0.1144,-0.0395,1.0188,-0.0102,-0.0060,-0.0092,0.0042,0.0052,0.0035,-20.3439,1.5259,-42.9627,
5.2190,0.1138,-0.0391,1.0205,-0.0102,-0.0060,-0.0092,0.0042,0.0052,0.0035,-20.3439,1.5259,-42.9627,
5.2210,0.1138,-0.0391,1.0205,-0.0102,-0.0060,-0.0092,0.0042,0.0033,0.0081,-20.3439,1.5259,-42.9627,
5.2220,0.1137,-0.0377,1.0225,-0.0102,-0.0060,-0.0092,0.0042,0.0033,0.0081,-20.3439,1.5259,-42.9627,
5.2220,0.1137,-0.0377,1.0225,-0.0102,-0.0060,-0.0092,0.0042,0.0033,0.0081,-20.3807,1.5247,-42.9513,
5.2240,0.1138,-0.0393,1.0275,-0.0102,-0.0060,-0.0092,0.0042,0.0033,0.0081,-20.3807,1.5247,-42.9513,
5.2240,0.1138,-0.0393,1.0275,0.0286,-0.0143,-0.0062,0.0042,0.0033,0.0081,-20.3807,1.5247,-42.9513,
5.2250,0.1138,-0.0393,1.0275,0.0286,-0.0143,-0.0062,0.0057,-0.0006,0.0017,-20.3807,1.5247,-42.9513,
5.2840,0.1138,-0.0393,1.0275,0.0286,-0.0143,-0.0062,0.0054,0.0003,-0.0017,-20.3807,1.5247,-42.9513,
5.2850,0.1154,-0.0406,1.0222,0.0286,-0.0143,-0.0062,0.0054,0.0003,-0.0017,-20.3807,1.5247,-42.9513,
5.2850,0.1148,-0.0399,1.0183,0.0286,-0.0143,-0.0062,0.0054,0.0003,-0.0017,-20.3807,1.5247,-42.9513,
5.2860,0.1153,-0.0365,1.0224,0.0286,-0.0143,-0.0062,0.0054,0.0003,-0.0017,-20.3807,1.5247,-42.9513,
5.2870,0.1153,-0.0365,1.0224,0.0286,-0.0143,-0.0062,0.0054,0.0003,-0.0017,-20.4055,1.5248,-42.9136,
5.3000,0.1171,-0.0365,1.0203,0.0286,-0.0143,-0.0062,0.0054,0.0003,-0.0017,-20.4055,1.5248,-42.9136,
5.3010,0.1171,-0.0365,1.0203,-0.0158,-0.0043,0.0191,0.0054,0.0003,-0.0017,-20.4055,1.5248,-42.9136,
5.3010,0.1171,-0.0365,1.0203,-0.0158,-0.0043,0.0191,-0.0016,0.0076,0.0029,-20.4055,1.5248,-42.9136,
5.3510,0.1171,-0.0365,1.0203,-0.0158,-0.0043,0.0191,-0.0016,0.0076,0.0029,-20.4565,1.4837,-42.9051,
5.3520,0.1164,-0.0393,1.0194,-0.0158,-0.0043,0.0191,-0.0016,0.0076,0.0029,-20.4565,1.4837,-42.9051,
5.3530,0.1140,-0.0410,1.0210,-0.0158,-0.0043,0.0191,-0.0016,0.0076,0.0029,-20.4565,1.4837,-42.9051,
5.3530,0.1140,-0.0410,1.0210,-0.0158,-0.0043,0.0191,-0.0050,0.0104,0.0063,-20.4565,1.4837,-42.9051,
5.3580,0.1140,-0.0410,1.0210,0.0040,0.0085,-0.0132,-0.0050,0.0104,0.0063,-20.4565,1.4837,-42.9051,
5.3590,0.1101,-0.0415,1.0233,0.0040,0.0085,-0.0132,-0.0050,0.0104,0.0063,-20.4565,1.4837,-42.9051,
5.4170,0.1083,-0.0391,1.0256,0.0040,0.0085,-0.0132,-0.0050,0.0104,0.0063,-20.4565,1.4837,-42.9051,
5.4190,0.1083,-0.0391,1.0256,0.0040,0.0085,-0.0132,-0.0050,0.0104,0.0063,-20.4044,1.5220,-43.0036,
5.4200,0.1083,-0.0391,1.0256,0.0040,0.0085,-0.0132,0.0002,0.0021,0.0026,-20.4044,1.5220,-43.0036,
5.4200,0.1101,-0.0378,1.0262,0.0040,0.0085,-0.0132,0.0002,0.0021,0.0026,-20.4044,1.5220,-43.0036,
5.4210,0.1135,-0.0394,1.0225,0.0040,0.0085,-0.0132,0.0002,0.0021,0.0026,-20.4044,1.5220,-43.0036,
5.4210,0.1135,-0.0394,1.0225,0.0040,0.0085,-0.0132,0.0054,-0.0000,0.0001,-20.4044,1.5220,-43.0036,
5.4360,0.1135,-0.0394,1.0225,-0.0221,-0.0174,0.0009,0.0054,-0.0000,0.0001,-20.4044,1.5220,-43.0036,
5.4380,0.1159,-0.0403,1.0216,-0.0221,-0.0174,0.0009,0.0054,-0.0000,0.0001,-20.4044,1.5220,-43.0036,
5.4840,0.1181,-0.0410,1.0216,-0.0221,-0.0174,0.0009,0.0054,-0.0000,0.0001,-20.4044,1.5220,-43.0036,
5.4860,0.1181,-0.0410,1.0216,-0.0221,-0.0174,0.0009,0.0054,-0.0000,0.0001,-20.3911,1.5307,-43.0540,
5.4880,0.1190,-0.0402,1.0191,-0.0221,-0.0174,0.0009,0.0054,-0.0000,0.0001,-20.3911,1.5307,-43.0540,
5.4880,0.1190,-0.0402,1.0191,-0.0221,-0.0174,0.0009,0.0030,-0.0003,0.0005,-20.3911,1.5307,-43.0540,
5.4950,0.1190,-0.0402,1.0191,-0.0199,-0.0038,0.0191,0.0030,-0.0003,0.0005,-20.3911,1.5307,-43.0540,
5.4960,0.1190,-0.0402,1.0191,-0.0199,-0.0038,0.0191,0.0002,0.0039,0.0014,-20.3911,1.5307,-43.0540,
5.4970,0.1169,-0.0394,1.0195,-0.0199,-0.0038,0.0191,0.0002,0.0039,0.0014,-20.3911,1.5307,-43.0540,
5.5510,0.1169,-0.0394,1.0195,-0.0199,-0.0038,0.0191,0.0057,0.0030,-0.0014,-20.3911,1.5307,-43.0540,
5.5520,0.1132,-0.0397,1.0179,-0.0199,-0.0038,0.0191,0.0057,0.0030,-0.0014,-20.3911,1.5307,-43.0540,
5.5520,0.1125,-0.0391,1.0175,-0.0199,-0.0038,0.0191,0.0057,0.0030,-0.0014,-20.3911,1.5307,-43.0540,
5.5530,0.1125,-0.0391,1.0175,-0.0199,-0.0038,0.0191,0.0057,0.0030,-0.0014,-20.3535,1.5410,-43.0906,
5.5730,0.1131,-0.0386,1.0190,-0.0199,-0.0038,0.0191,0.0057,0.0030,-0.0014,-20.3535,1.5410,-43.0906,
5.5740,0.1158,-0.0367,1.0207,-0.0199,-0.0038,0.0191,0.0057,0.0030,-0.0014,-20.3535,1.5410,-43.0906,
5.5740,0.1158,-0.0367,1.0207,-0.0199,-0.0038,0.0191,0.0030,0.0030,-0.0011,-20.3535,1.5410,-43.0906,
5.5750,0.1158,-0.0367,1.0207,0.0275,-0.0149,-0.0186,0.0030,0.0030,-0.0011,-20.3535,1.5410,-43.0906,
5.6180,0.1158,-0.0367,1.0207,0.0275,-0.0149,-0.0186,0.0014,0.0049,0.0020,-20.3535,1.5410,-43.0906,
5.6190,0.1158,-0.0367,1.0207,0.0275,-0.0149,-0.0186,0.0014,0.0049,0.0020,-20.3320,1.4938,-43.0671,
5.6200,0.1158,-0.0372,1.0234,0.0275,-0.0149,-0.0186,0.0014,0.0049,0.0020,-20.3320,1.4938,-43.0671,
5.6200,0.1136,-0.0376,1.0227,0.0275,-0.0149,-0.0186,0.0014,0.0049,0.0020,-20.3320,1.4938,-43.0671,
5.6320,0.1136,-0.0376,1.0227,-0.0071,0.0005,-0.0250,0.0014,0.0049,0.0020,-20.3320,1.4938,-43.0671,
5.6330,0.1120,-0.0391,1.0192,-0.0071,0.0005,-0.0250,0.0014,0.0049,0.0020,-20.3320,1.4938,-43.0671,
5.6840,0.1120,-0.0391,1.0192,-0.0071,0.0005,-0.0250,0.0014,0.0049,0.0020,-20.2976,1.4455,-43.0946,
5.6850,0.1120,-0.0386,1.0169,-0.0071,0.0005,-0.0250,0.0014,0.0049,0.0020,-20.2976,1.4455,-43.0946,
5.6860,0.1125,-0.0378,1.0164,-0.0071,0.0005,-0.0250,0.0014,0.0049,0.0020,-20.2976,1.4455,-43.0946,
5.6860,0.1125,-0.0378,1.0164,-0.0071,0.0005,-0.0250,0.0020,0.0024,0.0035,-20.2976,1.4455,-43.0946,
5.7050,0.1125,-0.0378,1.0164,-0.0071,0.0005,-0.0250,-0.0004,-0.0000,0.0026,-20.2976,1.4455,-43.0946,
5.7060,0.1129,-0.0373,1.0197,-0.0071,0.0005,-0.0250,-0.0004,-0.0000,0.0026,-20.2976,1.4455,-43.0946,
5.7100,0.1157,-0.0361,1.0153,-0.0071,0.0005,-0.0250,-0.0004,-0.0000,0.0026,-20.2976,1.4455,-43.0946,
5.7110,0.1157,-0.0361,1.0153,-0.0067,0.0035,-0.0034,-0.0004,-0.0000,0.0026,-20.2976,1.4455,-43.0946,
5.7510,0.1157,-0.0361,1.0153,-0.0067,0.0035,-0.0034,-0.0031,0.0085,0.0038,-20.2976,1.4455,-43.0946,
5.7520,0.1158,-0.0386,1.0161,-0.0067,0.0035,-0.0034,-0.0031,0.0085,0.0038,-20.2976,1.4455,-43.0946,
5.7520,0.1158,-0.0386,1.0161,-0.0067,0.0035,-0.0034,-0.0031,0.0085,0.0038,-20.2981,1.4357,-43.0952,
5.7530,0.1177,-0.0437,1.0196,-0.0067,0.0035,-0.0034,-0.0031,0.0085,0.0038,-20.2981,1.4357,-43.0952,
5.7690,0.1177,-0.0437,1.0196,0.0073,0.0157,-0.0377,-0.0031,0.0085,0.0038,-20.2981,1.4357,-43.0952,
5.7700,0.1131,-0.0413,1.0333,0.0073,0.0157,-0.0377,-0.0031,0.0085,0.0038,-20.2981,1.4357,-43.0952,
5.7700,0.1131,-0.0413,1.0333,0.0073,0.0157,-0.0377,-0.0102,0.0256,0.0053,-20.2981,1.4357,-43.0952,
5.8190,0.1131,-0.0413,1.0333,0.0073,0.0157,-0.0377,0.0042,0.0006,0.0017,-20.2981,1.4357,-43.0952,
5.8200,0.1072,-0.0398,1.0407,0.0073,0.0157,-0.0377,0.0042,0.0006,0.0017,-20.2981,1.4357,-43.0952,
5.8220,0.1041,-0.0424,1.0163,0.0073,0.0157,-0.0377,0.0042,0.0006,0.0017,-20.2981,1.4357,-43.0952,
5.8220,0.1041,-0.0424,1.0163,0.0073,0.0157,-0.0377,0.0042,0.0006,0.0017,-20.2621,1.4275,-43.0945,
5.8400,0.1058,-0.0410,0.9930,0.0073,0.0157,-0.0377,0.0042,0.0006,0.0017,-20.2621,1.4275,-43.0945,
5.8460,0.1058,-0.0410,0.9930,0.0073,0.0157,-0.0377,-0.0077,-0.0019,-0.0005,-20.2621,1.4275,-43.0945,
5.8470,0.1120,-0.0381,1.0233,0.0073,0.0157,-0.0377,-0.0077,-0.0019,-0.0005,-20.2621,1.4275,-43.0945,
5.8470,0.1120,-0.0381,1.0233,0.0132,-0.0172,0.0466,-0.0077,-0.0019,-0.0005,-20.2621,1.4275,-43.0945,
5.8840,0.1120,-0.0381,1.0233,0.0132,-0.0172,0.0466,-0.0077,-0.0019,-0.0005,-20.2478,1.4673,-43.0915,
5.8850,0.1166,-0.0376,1.0253,0.0132,-0.0172,0.0466,-0.0077,-0.0019,-0.0005,-20.2478,1.4673,-43.0915,
5.9050,0.1166,-0.0376,1.0253,0.0132,-0.0172,0.0466,-0.0013,0.0061,0.0053,-20.2478,1.4673,-43.0915,
5.9060,0.1228,-0.0375,1.0124,0.0132,-0.0172,0.0466,-0.0013,0.0061,0.0053,-20.2478,1.4673,-43.0915,
5.9070,0.1171,-0.0397,1.0162,0.0132,-0.0172,0.0466,-0.0013,0.0061,0.0053,-20.2478,1.4673,-43.0915,
5.9070,0.1171,-0.0397,1.0162,-0.0394,-0.0082,-0.0650,-0.0013,0.0061,0.0053,-20.2478,1.4673,-43.0915,
5.9510,0.1171,-0.0397,1.0162,-0.0394,-0.0082,-0.0650,-0.0077,0.0369,0.0081,-20.2478,1.4673,-43.0915,
5.9520,0.1171,-0.0397,1.0162,-0.0394,-0.0082,-0.0650,-0.0077,0.0369,0.0081,-20.2620,1.4385,-43.0552,
5.9530,0.1101,-0.0406,1.0385,-0.0394,-0.0082,-0.0650,-0.0077,0.0369,0.0081,-20.2620,1.4385,-43.0552,
5.9530,0.1032,-0.0438,1.0263,-0.0394,-0.0082,-0.0650,-0.0077,0.0369,0.0081,-20.2620,1.4385,-43.0552,
5.9730,0.0982,-0.0428,1.0207,-0.0394,-0.0082,-0.0650,-0.0077,0.0369,0.0081,-20.2620,1.4385,-43.0552,
5.9740,0.0982,-0.0428,1.0207,-0.0394,-0.0082,-0.0650,0.0014,0.0039,0.0063,-20.2620,1.4385,-43.0552,
5.9820,0.0982,-0.0406,1.0217,-0.0394,-0.0082,-0.0650,0.0014,0.0039,0.0063,-20.2620,1.4385,-43.0552,
5.9840,0.0982,-0.0406,1.0217,0.0604,0.0104,0.0004,0.0014,0.0039,0.0063,-20.2620,1.4385,-43.0552,
6.0170,0.0982,-0.0406,1.0217,0.0604,0.0104,0.0004,-0.0010,-0.0135,-0.0047,-20.2620,1.4385,-43.0552,
6.0190,0.1075,-0.0399,1.0191,0.0604,0.0104,0.0004,-0.0010,-0.0135,-0.0047,-20.2620,1.4385,-43.0552,
6.0190,0.1075,-0.0399,1.0191,0.0604,0.0104,0.0004,-0.0010,-0.0135,-0.0047,-20.2017,1.4318,-43.0407,
6.0390,0.1177,-0.0415,1.0191,0.0604,0.0104,0.0004,-0.0010,-0.0135,-0.0047,-20.2017,1.4318,-43.0407,
6.0410,0.1177,-0.0415,1.0191,0.0604,0.0104,0.0004,-0.0019,-0.0080,-0.0063,-20.2017,1.4318,-43.0407,
6.0410,0.1177,-0.0415,1.0191,-0.0984,-0.0235,0.0365,-0.0019,-0.0080,-0.0063,-20.2017,1.4318,-43.0407,
6.0420,0.1219,-0.0431,1.0195,-0.0984,-0.0235,0.0365,-0.0019,-0.0080,-0.0063,-20.2017,1.4318,-43.0407,
6.0840,0.1219,-0.0431,1.0195,-0.0984,-0.0235,0.0365,-0.0016,0.0079,0.0014,-20.2017,1.4318,-43.0407,
6.0860,0.1196,-0.0405,1.0205,-0.0984,-0.0235,0.0365,-0.0016,0.0079,0.0014,-20.2017,1.4318,-43.0407,
6.0870,0.1196,-0.0405,1.0205,-0.0984,-0.0235,0.0365,-0.0016,0.0079,0.0014,-20.2132,1.4407,-43.0534,
6.0880,0.1138,-0.0398,1.0203,-0.0984,-0.0235,0.0365,-0.0016,0.0079,0.0014,-20.2132,1.4407,-43.0534,
6.1060,0.1081,-0.0398,1.0199,-0.0984,-0.0235,0.0365,-0.0016,0.0079,0.0014,-20.2132,1.4407,-43.0534,
6.1200,0.1048,-0.0388,1.0228,-0.0984,-0.0235,0.0365,-0.0016,0.0079,0.0014,-20.2132,1.4407,-43.0534,
6.1210,0.1048,-0.0388,1.0228,-0.0984,-0.0235,0.0365,0.0002,0.0085,0.0011,-20.2132,1.4407,-43.0534,
6.1210,0.1048,-0.0388,1.0228,0.0515,-0.0129,-0.0174,0.0002,0.0085,0.0011,-20.2132,1.4407,-43.0534,
6.1510,0.1048,-0.0388,1.0228,0.0515,-0.0129,-0.0174,0.0002,0.0085,0.0011,-20.1751,1.4608,-43.0893,
6.1520,0.1037,-0.0405,1.0264,0.0515,-0.0129,-0.0174,0.0002,0.0085,0.0011,-20.1751,1.4608,-43.0893,
6.1730,0.1046,-0.0395,1.0225,0.0515,-0.0129,-0.0174,0.0002,0.0085,0.0011,-20.1751,1.4608,-43.0893,
6.1740,0.1046,-0.0395,1.0225,0.0515,-0.0129,-0.0174,0.0039,0.0003,-0.0023,-20.1751,1.4608,-43.0893,
6.1780,0.1046,-0.0395,1.0225,-0.0073,0.0021,-0.0024,0.0039,0.0003,-0.0023,-20.1751,1.4608,-43.0893,
6.1790,0.1059,-0.0398,1.0207,-0.0073,0.0021,-0.0024,0.0039,0.0003,-0.0023,-20.1751,1.4608,-43.0893,
6.2180,0.1059,-0.0398,1.0207,-0.0073,0.0021,-0.0024,0.0045,-0.0031,-0.0041,-20.1751,1.4608,-43.0893,
6.2190,0.1059,-0.0398,1.0207,-0.0073,0.0021,-0.0024,0.0045,-0.0031,-0.0041,-20.1988,1.4801,-43.0633,
6.2200,0.1102,-0.0394,1.0222,-0.0073,0.0021,-0.0024,0.0045,-0.0031,-0.0041,-20.1988,1.4801,-43.0633,
6.2210,0.1138,-0.0388,1.0188,-0.0073,0.0021,-0.0024,0.0045,-0.0031,-0.0041,-20.1988,1.4801,-43.0633,
6.2390,0.1138,-0.0388,1.0188,-0.0073,0.0021,-0.0024,0.0027,0.0039,0.0001,-20.1988,1.4801,-43.0633,
6.2410,0.1141,-0.0395,1.0190,-0.0073,0.0021,-0.0024,0.0027,0.0039,0.0001,-20.1988,1.4801,-43.0633,
6.2560,0.1141,-0.0395,1.0190,-0.0486,-0.0023,0.0204,0.0027,0.0039,0.0001,-20.1988,1.4801,-43.0633,
6.2570,0.1099,-0.0410,1.0203,-0.0486,-0.0023,0.0204,0.0027,0.0039,0.0001,-20.1988,1.4801,-43.0633,
6.2840,0.1099,-0.0410,1.0203,-0.0486,-0.0023,0.0204,-0.0001,0.0088,0.0038,-20.1988,1.4801,-43.0633,
6.2850,0.1099,-0.0410,1.0203,-0.0486,-0.0023,0.0204,-0.0001,0.0088,0.0038,-20.1838,1.5179,-43.1246,
6.2860,0.1059,-0.0420,1.0202,-0.0486,-0.0023,0.0204,-0.0001,0.0088,0.0038,-20.1838,1.5179,-43.1246,
6.3050,0.1049,-0.0409,1.0227,-0.0486,-0.0023,0.0204,-0.0001,0.0088,0.0038,-20.1838,1.5179,-43.1246,
6.3160,0.1049,-0.0409,1.0227,0.0242,-0.0017,-0.0191,-0.0001,0.0088,0.0038,-20.1838,1.5179,-43.1246,
6.3180,0.1046,-0.0405,1.0251,0.0242,-0.0017,-0.0191,-0.0001,0.0088,0.0038,-20.1838,1.5179,-43.1246,
6.3180,0.1046,-0.0405,1.0251,0.0242,-0.0017,-0.0191,0.0030,0.0052,0.0020,-20.1838,1.5179,-43.1246,
6.3510,0.1071,-0.0404,1.0239,0.0242,-0.0017,-0.0191,0.0030,0.0052,0.0020,-20.1838,1.5179,-43.1246,
6.3520,0.1071,-0.0404,1.0239,0.0242,-0.0017,-0.0191,0.0030,0.0052,0.0020,-20.1692,1.5569,-43.1474,
6.3720,0.1071,-0.0404,1.0239,0.0242,-0.0017,-0.0191,0.0039,-0.0003,-0.0005,-20.1692,1.5569,-43.1474,
6.3730,0.1096,-0.0398,1.0247,0.0242,-0.0017,-0.0191,0.0039,-0.0003,-0.0005,-20.1692,1.5569,-43.1474,
6.3740,0.1114,-0.0400,1.0222,0.0242,-0.0017,-0.0191,0.0039,-0.0003,-0.0005,-20.1692,1.5569,-43.1474,
6.3930,0.1126,-0.0413,1.0203,0.0242,-0.0017,-0.0191,0.0039,-0.0003,-0.0005,-20.1692,1.5569,-43.1474,
6.3940,0.1126,-0.0413,1.0203,0.0242,-0.0017,-0.0191,0.0027,-0.0012,-0.0011,-20.1692,1.5569,-43.1474,
6.3940,0.1126,-0.0413,1.0203,-0.0424,-0.0148,0.0137,0.0027,-0.0012,-0.0011,-20.1692,1.5569,-43.1474,
6.4170,0.1111,-0.0416,1.0206,-0.0424,-0.0148,0.0137,0.0027,-0.0012,-0.0011,-20.1692,1.5569,-43.1474,
6.4180,0.1111,-0.0416,1.0206,-0.0424,-0.0148,0.0137,0.0027,-0.0012,-0.0011,-20.1323,1.5578,-43.1717,
6.4380,0.1111,-0.0416,1.0206,-0.0424,-0.0148,0.0137,0.0011,0.0009,-0.0020,-20.1323,1.5578,-43.1717,
6.4390,0.1087,-0.0406,1.0195,-0.0424,-0.0148,0.0137,0.0011,0.0009,-0.0020,-20.1323,1.5578,-43.1717,
6.4520,0.1070,-0.0402,1.0184,-0.0424,-0.0148,0.0137,0.0011,0.0009,-0.0020,-20.1323,1.5578,-43.1717,
6.4530,0.1070,-0.0402,1.0184,0.0105,-0.0088,0.0102,0.0011,0.0009,-0.0020,-20.1323,1.5578,-43.1717,
6.4840,0.1070,-0.0402,1.0184,0.0105,-0.0088,0.0102,0.0020,0.0021,-0.0014,-20.1323,1.5578,-43.1717,
6.4860,0.1070,-0.0402,1.0184,0.0105,-0.0088,0.0102,0.0020,0.0021,-0.0014,-20.1080,1.5703,-43.1187,
6.4870,0.1071,-0.0398,1.0194,0.0105,-0.0088,0.0102,0.0020,0.0021,-0.0014,-20.1080,1.5703,-43.1187,
6.5050,0.1090,-0.0405,1.0228,0.0105,-0.0088,0.0102,0.0020,0.0021,-0.0014,-20.1080,1.5703,-43.1187,
6.5290,0.1097,-0.0394,1.0249,0.0105,-0.0088,0.0102,0.0020,0.0021,-0.0014,-20.1080,1.5703,-43.1187,
6.5300,0.1097,-0.0394,1.0249,0.0105,-0.0088,0.0102,-0.0004,0.0021,0.0005,-20.1080,1.5703,-43.1187,
6.5310,0.1097,-0.0394,1.0249,-0.0072,-0.0095,-0.0196,-0.0004,0.0021,0.0005,-20.1080,1.5703,-43.1187,
6.5320,0.1093,-0.0392,1.0244,-0.0072,-0.0095,-0.0196,-0.0004,0.0021,0.0005,-20.1080,1.5703,-43.1187,
6.5510,0.1075,-0.0391,1.0227,-0.0072,-0.0095,-0.0196,-0.0004,0.0021,0.0005,-20.1080,1.5703,-43.1187,
6.5520,0.1075,-0.0391,1.0227,-0.0072,-0.0095,-0.0196,-0.0004,0.0021,0.0005,-20.1198,1.5685,-43.1578,
6.5530,0.1075,-0.0391,1.0227,-0.0072,-0.0095,-0.0196,0.0014,0.0024,0.0011,-20.1198,1.5685,-43.1578,
6.5710,0.1058,-0.0389,1.0217,-0.0072,-0.0095,-0.0196,0.0014,0.0024,0.0011,-20.1198,1.5685,-43.1578,
6.5870,0.1065,-0.0400,1.0213,-0.0072,-0.0095,-0.0196,0.0014,0.0024,0.0011,-20.1198,1.5685,-43.1578,
6.5880,0.1065,-0.0400,1.0213,-0.0072,-0.0095,-0.0196,0.0005,0.0006,-0.0002,-20.1198,1.5685,-43.1578,
6.5890,0.1065,-0.0400,1.0213,-0.0030,-0.0024,0.0184,0.0005,0.0006,-0.0002,-20.1198,1.5685,-43.1578,
6.6170,0.1063,-0.0389,1.0221,-0.0030,-0.0024,0.0184,0.0005,0.0006,-0.0002,-20.1198,1.5685,-43.1578,
6.6180,0.1063,-0.0389,1.0221,-0.0030,-0.0024,0.0184,0.0005,0.0006,-0.0002,-20.1062,1.5879,-43.1818,
6.6380,0.1063,-0.0389,1.0221,-0.0030,-0.0024,0.0184,-0.0004,-0.0046,0.0005,-20.1062,1.5879,-43.1818,
6.6390,0.1080,-0.0370,1.0197,-0.0030,-0.0024,0.0184,-0.0004,-0.0046,0.0005,-20.1062,1.5879,-43.1818,
6.6650,0.1109,-0.0399,1.0145,-0.0030,-0.0024,0.0184,-0.0004,-0.0046,0.0005,-20.1062,1.5879,-43.1818,
6.6670,0.1109,-0.0399,1.0145,-0.0030,-0.0024,0.0184,-0.0022,0.0049,0.0014,-20.1062,1.5879,-43.1818,
6.6670,0.1111,-0.0445,1.0202,-0.0030,-0.0024,0.0184,-0.0022,0.0049,0.0014,-20.1062,1.5879,-43.1818,
6.6680,0.1111,-0.0445,1.0202,-0.0245,0.0024,0.0014,-0.0022,0.0049,0.0014,-20.1062,1.5879,-43.1818,
6.6840,0.1111,-0.0445,1.0202,-0.0245,0.0024,0.0014,-0.0022,0.0049,0.0014,-20.0683,1.6084,-43.2049,
6.7050,0.1111,-0.0445,1.0202,-0.0245,0.0024,0.0014,-0.0062,0.0125,0.0023,-20.0683,1.6084,-43.2049,
6.7060,0.1104,-0.0436,1.0238,-0.0245,0.0024,0.0014,-0.0062,0.0125,0.0023,-20.0683,1.6084,-43.2049,
6.7070,0.1055,-0.0387,1.0389,-0.0245,0.0024,0.0014,-0.0062,0.0125,0.0023,-20.0683,1.6084,-43.2049,
6.7240,0.1055,-0.0387,1.0389,0.0076,-0.0049,-0.0243,-0.0062,0.0125,0.0023,-20.0683,1.6084,-43.2049,
6.7250,0.1015,-0.0386,1.0289,0.0076,-0.0049,-0.0243,-0.0062,0.0125,0.0023,-20.0683,1.6084,-43.2049,
6.7500,0.0999,-0.0410,1.0045,0.0076,-0.0049,-0.0243,-0.0062,0.0125,0.0023,-20.0683,1.6084,-43.2049,
6.7510,0.0999,-0.0410,1.0045,0.0076,-0.0049,-0.0243,0.0100,-0.0098,-0.0029,-20.0683,1.6084,-43.2049,
6.7510,0.0999,-0.0410,1.0045,0.0076,-0.0049,-0.0243,0.0100,-0.0098,-0.0029,-20.0450,1.5678,-43.2837,
6.7710,0.1069,-0.0388,1.0112,0.0076,-0.0049,-0.0243,0.0100,-0.0098,-0.0029,-20.0450,1.5678,-43.2837,
6.8020,0.1069,-0.0388,1.0112,0.0076,-0.0049,-0.0243,-0.0096,-0.0064,-0.0020,-20.0450,1.5678,-43.2837,
6.8030,0.1130,-0.0391,1.0333,0.0076,-0.0049,-0.0243,-0.0096,-0.0064,-0.0020,-20.0450,1.5678,-43.2837,
6.8040,0.1202,-0.0351,1.0212,0.0076,-0.0049,-0.0243,-0.0096,-0.0064,-0.0020,-20.0450,1.5678,-43.2837,
6.8040,0.1202,-0.0351,1.0212,-0.0388,-0.0029,0.0635,-0.0096,-0.0064,-0.0020,-20.0450,1.5678,-43.2837,
6.8160,0.1202,-0.0351,1.0212,-0.0388,-0.0029,0.0635,-0.0096,-0.0064,-0.0020,-19.9984,1.5311,-43.2715,
6.8380,0.1168,-0.0387,1.0071,-0.0388,-0.0029,0.0635,-0.0096,-0.0064,-0.0020,-19.9984,1.5311,-43.2715,
6.8390,0.1168,-0.0387,1.0071,-0.0388,-0.0029,0.0635,0.0045,0.0097,0.0063,-19.9984,1.5311,-43.2715,
6.8600,0.1168,-0.0387,1.0071,-0.0388,-0.0029,0.0635,-0.0038,0.0272,0.0090,-19.9984,1.5311,-43.2715,
6.8610,0.1096,-0.0388,1.0312,-0.0388,-0.0029,0.0635,-0.0038,0.0272,0.0090,-19.9984,1.5311,-43.2715,
6.8620,0.1010,-0.0437,1.0294,-0.0388,-0.0029,0.0635,-0.0038,0.0272,0.0090,-19.9984,1.5311,-43.2715,
6.8620,0.1010,-0.0437,1.0294,0.0384,0.0143,-0.0401,-0.0038,0.0272,0.0090,-19.9984,1.5311,-43.2715,
6.8830,0.0949,-0.0420,1.0236,0.0384,0.0143,-0.0401,-0.0038,0.0272,0.0090,-19.9984,1.5311,-43.2715,
6.8840,0.0949,-0.0420,1.0236,0.0384,0.0143,-0.0401,-0.0038,0.0272,0.0090,-19.9883,1.4924,-43.2735,
6.9040,0.0940,-0.0392,1.0252,0.0384,0.0143,-0.0401,-0.0038,0.0272,0.0090,-19.9883,1.4924,-43.2735,
6.9060,0.0940,-0.0392,1.0252,0.0384,0.0143,-0.0401,-0.0013,-0.0058,0.0023,-19.9883,1.4924,-43.2735,
6.9400,0.0940,-0.0392,1.0252,-0.0117,-0.0063,0.0103,-0.0013,-0.0058,0.0023,-19.9883,1.4924,-43.2735,
6.9420,0.0940,-0.0392,1.0252,-0.0117,-0.0063,0.0103,-0.0028,-0.0174,-0.0050,-19.9883,1.4924,-43.2735,
6.9430,0.1021,-0.0397,1.0239,-0.0117,-0.0063,0.0103,-0.0028,-0.0174,-0.0050,-19.9883,1.4924,-43.2735,
6.9430,0.1121,-0.0425,1.0225,-0.0117,-0.0063,0.0103,-0.0028,-0.0174,-0.0050,-19.9883,1.4924,-43.2735,
6.9500,0.1121,-0.0425,1.0225,-0.0117,-0.0063,0.0103,-0.0028,-0.0174,-0.0050,-19.9886,1.4821,-43.2870,
6.9720,0.1168,-0.0447,1.0208,-0.0117,-0.0063,0.0103,-0.0028,-0.0174,-0.0050,-19.9886,1.4821,-43.2870,
6.9970,0.1168,-0.0447,1.0208,-0.0117,-0.0063,0.0103,-0.0010,-0.0031,-0.0050,-19.9886,1.4821,-43.2870,
6.9980,0.1168,-0.0441,1.0213,-0.0117,-0.0063,0.0103,-0.0010,-0.0031,-0.0050,-19.9886,1.4821,-43.2870,
6.9990,0.1104,-0.0413,1.0210,-0.0117,-0.0063,0.0103,-0.0010,-0.0031,-0.0050,-19.9886,1.4821,-43.2870,
6.9990,0.1104,-0.0413,1.0210,-0.0611,-0.0044,0.0176,-0.0010,-0.0031,-0.0050,-19.9886,1.4821,-43.2870,
7.0170,0.1044,-0.0399,1.0214,-0.0611,-0.0044,0.0176,-0.0010,-0.0031,-0.0050,-19.9886,1.4821,-43.2870,
7.0180,0.1044,-0.0399,1.0214,-0.0611,-0.0044,0.0176,-0.0001,0.0070,0.0032,-19.9886,1.4821,-43.2870,
7.0190,0.1044,-0.0399,1.0214,-0.0611,-0.0044,0.0176,-0.0001,0.0070,0.0032,-20.0254,1.4699,-43.3148,
7.0380,0.1014,-0.0400,1.0216,-0.0611,-0.0044,0.0176,-0.0001,0.0070,0.0032,-20.0254,1.4699,-43.3148,
7.0770,0.1014,-0.0400,1.0216,0.0520,-0.0253,-0.0078,-0.0001,0.0070,0.0032,-20.0254,1.4699,-43.3148,
7.0780,0.1014,-0.0400,1.0216,0.0520,-0.0253,-0.0078,0.0023,0.0049,0.0020,-20.0254,1.4699,-43.3148,
7.0790,0.1011,-0.0405,1.0250,0.0520,-0.0253,-0.0078,0.0023,0.0049,0.0020,-20.0254,1.4699,-43.3148,
7.0790,0.1026,-0.0405,1.0249,0.0520,-0.0253,-0.0078,0.0023,0.0049,0.0020,-20.0254,1.4699,-43.3148,
7.0830,0.1026,-0.0405,1.0249,0.0520,-0.0253,-0.0078,0.0023,0.0049,0.0020,-20.0370,1.4902,-43.2754,
7.1050,0.1035,-0.0421,1.0224,0.0520,-0.0253,-0.0078,0.0023,0.0049,0.0020,-20.0370,1.4902,-43.2754,
7.1060,0.1035,-0.0421,1.0224,0.0520,-0.0253,-0.0078,0.0039,-0.0037,-0.0023,-20.0370,1.4902,-43.2754,
7.1340,0.1068,-0.0400,1.0253,0.0520,-0.0253,-0.0078,0.0039,-0.0037,-0.0023,-20.0370,1.4902,-43.2754,
7.1350,0.1118,-0.0398,1.0201,0.0520,-0.0253,-0.0078,0.0039,-0.0037,-0.0023,-20.0370,1.4902,-43.2754,
7.1360,0.1118,-0.0398,1.0201,0.0520,-0.0253,-0.0078,0.0060,-0.0049,-0.0020,-20.0370,1.4902,-43.2754,
7.1370,0.1118,-0.0398,1.0201,-0.0565,-0.0030,0.0133,0.0060,-0.0049,-0.0020,-20.0370,1.4902,-43.2754,
7.1500,0.1118,-0.0398,1.0201,-0.0565,-0.0030,0.0133,0.0060,-0.0049,-0.0020,-20.0617,1.4899,-43.2506,
7.1710,0.1129,-0.0395,1.0195,-0.0565,-0.0030,0.0133,0.0060,-0.0049,-0.0020,-20.0617,1.4899,-43.2506,
7.2130,0.1129,-0.0395,1.0195,0.0079,-0.0056,0.0004,0.0060,-0.0049,-0.0020,-20.0617,1.4899,-43.2506,
7.2140,0.1129,-0.0395,1.0195,0.0079,-0.0056,0.0004,0.0054,0.0052,0.0011,-20.0617,1.4899,-43.2506,
7.2140,0.1091,-0.0408,1.0195,0.0079,-0.0056,0.0004,0.0054,0.0052,0.0011,-20.0617,1.4899,-43.2506,
7.2150,0.1091,-0.0408,1.0195,0.0079,-0.0056,0.0004,0.0017,0.0064,0.0032,-20.0617,1.4899,-43.2506,
7.2150,0.1042,-0.0409,1.0213,0.0079,-0.0056,0.0004,0.0017,0.0064,0.0032,-20.0617,1.4899,-43.2506,
7.2160,0.1008,-0.0406,1.0233,0.0079,-0.0056,0.0004,0.0017,0.0064,0.0032,-20.0617,1.4899,-43.2506,
7.2180,0.1008,-0.0406,1.0233,0.0079,-0.0056,0.0004,0.0017,0.0064,0.0032,-20.1009,1.4392,-43.2551,
7.2390,0.1017,-0.0392,1.0241,0.0079,-0.0056,0.0004,0.0017,0.0064,0.0032,-20.1009,1.4392,-43.2551,
7.2730,0.1033,-0.0377,1.0244,0.0079,-0.0056,0.0004,0.0017,0.0064,0.0032,-20.1009,1.4392,-43.2551,
7.2750,0.1071,-0.0376,1.0250,0.0079,-0.0056,0.0004,0.0017,0.0064,0.0032,-20.1009,1.4392,-43.2551,
7.2750,0.1071,-0.0376,1.0250,-0.0145,-0.0088,-0.0089,0.0017,0.0064,0.0032,-20.1009,1.4392,-43.2551,
7.2760,0.1071,-0.0376,1.0250,-0.0145,-0.0088,-0.0089,0.0027,-0.0022,-0.0002,-20.1009,1.4392,-43.2551,
7.2830,0.1071,-0.0376,1.0250,-0.0145,-0.0088,-0.0089,0.0027,-0.0022,-0.0002,-20.0518,1.4516,-43.2397,
7.3050,0.1109,-0.0393,1.0242,-0.0145,-0.0088,-0.0089,0.0027,-0.0022,-0.0002,-20.0518,1.4516,-43.2397,
7.3070,0.1109,-0.0393,1.0242,-0.0145,-0.0088,-0.0089,0.0011,-0.0034,-0.0017,-20.0518,1.4516,-43.2397,
7.3500,0.1109,-0.0393,1.0242,-0.0145,-0.0088,-0.0089,0.0011,0.0009,0.0001,-20.0518,1.4516,-43.2397,
7.3510,0.1116,-0.0409,1.0221,-0.0145,-0.0088,-0.0089,0.0011,0.0009,0.0001,-20.0518,1.4516,-43.2397,
7.3510,0.1116,-0.0409,1.0221,-0.0190,0.0121,0.0218,0.0011,0.0009,0.0001,-20.0518,1.4516,-43.2397,
7.3520,0.1094,-0.0414,1.0206,-0.0190,0.0121,0.0218,0.0011,0.0009,0.0001,-20.0518,1.4516,-43.2397,
7.3520,0.1065,-0.0416,1.0206,-0.0190,0.0121,0.0218,0.0011,0.0009,0.0001,-20.0518,1.4516,-43.2397,
7.3520,0.1065,-0.0416,1.0206,-0.0190,0.0121,0.0218,0.0011,0.0009,0.0001,-20.0768,1.4411,-43.2284,
7.3720,0.1046,-0.0413,1.0197,-0.0190,0.0121,0.0218,0.0011,0.0009,0.0001,-20.0768,1.4411,-43.2284,
7.3730,0.1046,-0.0413,1.0197,-0.0190,0.0121,0.0218,0.0030,0.0003,-0.0002,-20.0768,1.4411,-43.2284,
7.4090,0.1046,-0.0413,1.0197,0.0195,-0.0149,-0.0071,0.0030,0.0003,-0.0002,-20.0768,1.4411,-43.2284,
7.4110,0.1046,-0.0413,1.0197,0.0195,-0.0149,-0.0071,0.0027,-0.0016,0.0008,-20.0768,1.4411,-43.2284,
7.4110,0.1039,-0.0415,1.0210,0.0195,-0.0149,-0.0071,0.0027,-0.0016,0.0008,-20.0768,1.4411,-43.2284,
7.4120,0.1046,-0.0413,1.0223,0.0195,-0.0149,-0.0071,0.0027,-0.0016,0.0008,-20.0768,1.4411,-43.2284,
7.4160,0.1046,-0.0413,1.0223,0.0195,-0.0149,-0.0071,0.0027,-0.0016,0.0008,-20.1001,1.4482,-43.2802,
7.4380,0.1074,-0.0400,1.0249,0.0195,-0.0149,-0.0071,0.0027,-0.0016,0.0008,-20.1001,1.4482,-43.2802,
7.4830,0.1074,-0.0400,1.0249,0.0195,-0.0149,-0.0071,0.0008,-0.0003,0.0017,-20.1001,1.4482,-43.2802,
7.4830,0.1070,-0.0395,1.0234,0.0195,-0.0149,-0.0071,0.0008,-0.0003,0.0017,-20.1001,1.4482,-43.2802,
7.4840,0.1070,-0.0395,1.0234,0.0195,-0.0149,-0.0071,0.0008,-0.0003,0.0017,-20.0516,1.4512,-43.2526,
7.4840,0.1068,-0.0398,1.0238,0.0195,-0.0149,-0.0071,0.0008,-0.0003,0.0017,-20.0516,1.4512,-43.2526,
7.4840,0.1048,-0.0410,1.0229,0.0195,-0.0149,-0.0071,0.0008,-0.0003,0.0017,-20.0516,1.4512,-43.2526,
7.4840,0.1048,-0.0410,1.0229,0.0195,-0.0149,-0.0071,0.0008,0.0009,0.0005,-20.0516,1.4512,-43.2526,
7.4850,0.1048,-0.0410,1.0229,-0.0224,-0.0148,-0.0057,0.0008,0.0009,0.0005,-20.0516,1.4512,-43.2526,
7.5050,0.1044,-0.0399,1.0217,-0.0224,-0.0148,-0.0057,0.0008,0.0009,0.0005,-20.0516,1.4512,-43.2526,
7.5440,0.1044,-0.0399,1.0217,-0.0224,-0.0148,-0.0057,0.0011,-0.0012,0.0001,-20.0516,1.4512,-43.2526,
7.5440,0.1054,-0.0387,1.0219,-0.0224,-0.0148,-0.0057,0.0011,-0.0012,0.0001,-20.0516,1.4512,-43.2526,
7.5450,0.1057,-0.0373,1.0219,-0.0224,-0.0148,-0.0057,0.0011,-0.0012,0.0001,-20.0516,1.4512,-43.2526,
7.5450,0.1057,-0.0373,1.0219,-0.0079,-0.0037,0.0127,0.0011,-0.0012,0.0001,-20.0516,1.4512,-43.2526,
7.5510,0.1057,-0.0373,1.0219,-0.0079,-0.0037,0.0127,0.0011,-0.0012,0.0001,-19.9650,1.4742,-43.2610,
7.5720,0.1082,-0.0386,1.0178,-0.0079,-0.0037,0.0127,0.0011,-0.0012,0.0001,-19.9650,1.4742,-43.2610,
7.5730,0.1082,-0.0386,1.0178,-0.0079,-0.0037,0.0127,-0.0004,-0.0055,-0.0011,-19.9650,1.4742,-43.2610,
7.6160,0.1082,-0.0386,1.0178,-0.0079,-0.0037,0.0127,-0.0004,-0.0055,-0.0011,-19.9057,1.4589,-43.2085,
7.6170,0.1097,-0.0430,1.0194,-0.0079,-0.0037,0.0127,-0.0004,-0.0055,-0.0011,-19.9057,1.4589,-43.2085,
7.6180,0.1098,-0.0436,1.0230,-0.0079,-0.0037,0.0127,-0.0004,-0.0055,-0.0011,-19.9057,1.4589,-43.2085,
7.6180,0.1098,-0.0436,1.0230,-0.0079,-0.0037,0.0127,-0.0041,0.0039,-0.0017,-19.9057,1.4589,-43.2085,
7.6220,0.1071,-0.0400,1.0343,-0.0079,-0.0037,0.0127,-0.0041,0.0039,-0.0017,-19.9057,1.4589,-43.2085,
7.6220,0.1071,-0.0400,1.0343,-0.0124,0.0120,-0.0068,-0.0041,0.0039,-0.0017,-19.9057,1.4589,-43.2085,
7.6800,0.1022,-0.0381,1.0355,-0.0124,0.0120,-0.0068,-0.0041,0.0039,-0.0017,-19.9057,1.4589,-43.2085,
7.6810,0.1000,-0.0394,1.0192,-0.0124,0.0120,-0.0068,-0.0041,0.0039,-0.0017,-19.9057,1.4589,-43.2085,
7.6820,0.1021,-0.0424,0.9949,-0.0124,0.0120,-0.0068,-0.0041,0.0039,-0.0017,-19.9057,1.4589,-43.2085,
7.6820,0.1021,-0.0424,0.9949,-0.0124,0.0120,-0.0068,0.0002,0.0027,0.0005,-19.9057,1.4589,-43.2085,
7.6830,0.1021,-0.0424,0.9949,-0.0124,0.0120,-0.0068,0.0103,-0.0135,-0.0041,-19.9057,1.4589,-43.2085,
7.6830,0.1021,-0.0424,0.9949,0.0129,-0.0204,0.0178,0.0103,-0.0135,-0.0041,-19.9057,1.4589,-43.2085,
7.6840,0.1021,-0.0424,0.9949,0.0129,-0.0204,0.0178,0.0103,-0.0135,-0.0041,-19.8580,1.4414,-43.2079,
7.7060,0.1085,-0.0380,1.0290,0.0129,-0.0204,0.0178,0.0103,-0.0135,-0.0041,-19.8580,1.4414,-43.2079,
7.7500,0.1141,-0.0372,1.0311,0.0129,-0.0204,0.0178,0.0103,-0.0135,-0.0041,-19.8580,1.4414,-43.2079,
7.7510,0.1165,-0.0376,1.0092,0.0129,-0.0204,0.0178,0.0103,-0.0135,-0.0041,-19.8580,1.4414,-43.2079,
7.7520,0.1165,-0.0376,1.0092,0.0129,-0.0204,0.0178,-0.0050,-0.0052,0.0023,-19.8580,1.4414,-43.2079,
7.7520,0.1165,-0.0376,1.0092,0.0129,-0.0204,0.0178,-0.0050,-0.0052,0.0023,-19.8453,1.4518,-43.2068,
7.7580,0.1165,-0.0376,1.0092,0.0129,-0.0204,0.0178,0.0054,0.0210,0.0069,-19.8453,1.4518,-43.2068,
7.7580,0.1083,-0.0371,1.0197,0.0129,-0.0204,0.0178,0.0054,0.0210,0.0069,-19.8453,1.4518,-43.2068,
7.7590,0.1083,-0.0371,1.0197,-0.0405,-0.0010,-0.0462,0.0054,0.0210,0.0069,-19.8453,1.4518,-43.2068,
7.8170,0.1033,-0.0416,1.0338,-0.0405,-0.0010,-0.0462,0.0054,0.0210,0.0069,-19.8453,1.4518,-43.2068,
7.8180,0.1033,-0.0416,1.0338,-0.0405,-0.0010,-0.0462,0.0042,0.0125,0.0069,-19.8453,1.4518,-43.2068,
7.8180,0.0950,-0.0443,1.0221,-0.0405,-0.0010,-0.0462,0.0042,0.0125,0.0069,-19.8453,1.4518,-43.2068,
7.8190,0.0915,-0.0398,1.0221,-0.0405,-0.0010,-0.0462,0.0042,0.0125,0.0069,-19.8453,1.4518,-43.2068,
7.8200,0.0915,-0.0398,1.0221,0.0550,0.0172,0.0053,0.0042,0.0125,0.0069,-19.8453,1.4518,-43.2068,
7.8200,0.0915,-0.0398,1.0221,0.0550,0.0172,0.0053,0.0042,0.0125,0.0069,-19.8070,1.4935,-43.1772,
7.8380,0.0962,-0.0367,1.0195,0.0550,0.0172,0.0053,0.0042,0.0125,0.0069,-19.8070,1.4935,-43.1772,
7.8390,0.0962,-0.0367,1.0195,0.0550,0.0172,0.0053,-0.0004,-0.0159,-0.0011,-19.8070,1.4935,-43.1772,
7.8830,0.0962,-0.0367,1.0195,0.0550,0.0172,0.0053,-0.0004,-0.0159,-0.0011,-19.7089,1.5187,-43.1336,
7.8840,0.1080,-0.0393,1.0238,0.0550,0.0172,0.0053,-0.0004,-0.0159,-0.0011,-19.7089,1.5187,-43.1336,
7.8850,0.1168,-0.0448,1.0210,0.0550,0.0172,0.0053,-0.0004,-0.0159,-0.0011,-19.7089,1.5187,-43.1336,
7.8850,0.1168,-0.0448,1.0210,0.0550,0.0172,0.0053,-0.0019,-0.0159,-0.0075,-19.7089,1.5187,-43.1336,
7.8960,0.1168,-0.0448,1.0210,-0.1006,-0.0167,0.0274,-0.0019,-0.0159,-0.0075,-19.7089,1.5187,-43.1336,
7.8970,0.1197,-0.0448,1.0212,-0.1006,-0.0167,0.0274,-0.0019,-0.0159,-0.0075,-19.7089,1.5187,-43.1336,
7.9500,0.1147,-0.0422,1.0214,-0.1006,-0.0167,0.0274,-0.0019,-0.0159,-0.0075,-19.7089,1.5187,-43.1336,
7.9500,0.1147,-0.0422,1.0214,-0.1006,-0.0167,0.0274,0.0002,0.0024,-0.0032,-19.7089,1.5187,-43.1336,
7.9510,0.1066,-0.0400,1.0205,-0.1006,-0.0167,0.0274,0.0002,0.0024,-0.0032,-19.7089,1.5187,-43.1336,
7.9510,0.1066,-0.0400,1.0205,-0.1006,-0.0167,0.0274,0.0002,0.0024,-0.0032,-19.6357,1.5330,-43.0916,
7.9530,0.1066,-0.0400,1.0205,-0.1006,-0.0167,0.0274,0.0020,0.0073,0.0035,-19.6357,1.5330,-43.0916,
7.9530,0.1006,-0.0393,1.0197,-0.1006,-0.0167,0.0274,0.0020,0.0073,0.0035,-19.6357,1.5330,-43.0916,
7.9540,0.1006,-0.0393,1.0197,0.0548,-0.0241,-0.0053,0.0020,0.0073,0.0035,-19.6357,1.5330,-43.0916,
8.0170,0.1006,-0.0393,1.0197,0.0548,-0.0241,-0.0053,0.0045,0.0012,-0.0005,-19.6357,1.5330,-43.0916,
8.0180,0.0989,-0.0387,1.0199,0.0548,-0.0241,-0.0053,0.0045,0.0012,-0.0005,-19.6357,1.5330,-43.0916,
8.0180,0.1002,-0.0391,1.0225,0.0548,-0.0241,-0.0053,0.0045,0.0012,-0.0005,-19.6357,1.5330,-43.0916,
8.0190,0.1009,-0.0393,1.0222,0.0548,-0.0241,-0.0053,0.0045,0.0012,-0.0005,-19.6357,1.5330,-43.0916,
8.0190,0.1009,-0.0393,1.0222,0.0548,-0.0241,-0.0053,0.0045,0.0012,-0.0005,-19.6228,1.5319,-43.1426,
8.0310,0.1009,-0.0393,1.0222,-0.0086,-0.0084,-0.0155,0.0045,0.0012,-0.0005,-19.6228,1.5319,-43.1426,
8.0330,0.1050,-0.0388,1.0222,-0.0086,-0.0084,-0.0155,0.0045,0.0012,-0.0005,-19.6228,1.5319,-43.1426,
8.0340,0.1050,-0.0388,1.0222,-0.0086,-0.0084,-0.0155,0.0042,-0.0077,-0.0032,-19.6228,1.5319,-43.1426,
8.0850,0.1050,-0.0388,1.0222,-0.0086,-0.0084,-0.0155,0.0051,-0.0028,-0.0008,-19.6228,1.5319,-43.1426,
8.0860,0.1101,-0.0369,1.0210,-0.0086,-0.0084,-0.0155,0.0051,-0.0028,-0.0008,-19.6228,1.5319,-43.1426,
8.0870,0.1121,-0.0391,1.0212,-0.0086,-0.0084,-0.0155,0.0051,-0.0028,-0.0008,-19.6228,1.5319,-43.1426,
8.0870,0.1121,-0.0391,1.0212,-0.0086,-0.0084,-0.0155,0.0051,-0.0028,-0.0008,-19.6245,1.5028,-43.1317,
8.0920,0.1121,-0.0391,1.0212,-0.0469,0.0013,0.0001,0.0051,-0.0028,-0.0008,-19.6245,1.5028,-43.1317,
8.0920,0.1086,-0.0398,1.0188,-0.0469,0.0013,0.0001,0.0051,-0.0028,-0.0008,-19.6245,1.5028,-43.1317,
8.1530,0.1086,-0.0398,1.0188,-0.0469,0.0013,0.0001,0.0023,0.0046,0.0032,-19.6245,1.5028,-43.1317,
8.1550,0.1041,-0.0405,1.0194,-0.0469,0.0013,0.0001,0.0023,0.0046,0.0032,-19.6245,1.5028,-43.1317,
8.1560,0.0994,-0.0393,1.0195,-0.0469,0.0013,0.0001,0.0023,0.0046,0.0032,-19.6245,1.5028,-43.1317,
8.1570,0.1006,-0.0386,1.0221,-0.0469,0.0013,0.0001,0.0023,0.0046,0.0032,-19.6245,1.5028,-43.1317,
8.1570,0.1006,-0.0386,1.0221,-0.0469,0.0013,0.0001,0.0017,0.0006,0.0029,-19.6245,1.5028,-43.1317,
8.1580,0.1006,-0.0386,1.0221,-0.0469,0.0013,0.0001,0.0017,0.0006,0.0029,-19.6625,1.4493,-43.2263,
8.1690,0.1006,-0.0386,1.0221,0.0275,0.0027,-0.0172,0.0017,0.0006,0.0029,-19.6625,1.4493,-43.2263,
8.1700,0.1036,-0.0394,1.0240,0.0275,0.0027,-0.0172,0.0017,0.0006,0.0029,-19.6625,1.4493,-43.2263,
8.2170,0.1036,-0.0394,1.0240,0.0275,0.0027,-0.0172,0.0036,-0.0064,0.0001,-19.6625,1.4493,-43.2263,
8.2190,0.1071,-0.0397,1.0223,0.0275,0.0027,-0.0172,0.0036,-0.0064,0.0001,-19.6625,1.4493,-43.2263,
8.2190,0.1071,-0.0397,1.0223,0.0275,0.0027,-0.0172,0.0036,-0.0064,0.0001,-19.6380,1.4610,-43.1990,
8.2200,0.1116,-0.0383,1.0228,0.0275,0.0027,-0.0172,0.0036,-0.0064,0.0001,-19.6380,1.4610,-43.1990,
8.2280,0.1116,-0.0383,1.0228,0.0275,0.0027,-0.0172,0.0002,-0.0046,-0.0011,-19.6380,1.4610,-43.1990,
8.2280,0.1120,-0.0398,1.0211,0.0275,0.0027,-0.0172,0.0002,-0.0046,-0.0011,-19.6380,1.4610,-43.1990,
8.2280,0.1120,-0.0398,1.0211,-0.0496,-0.0051,-0.0007,0.0002,-0.0046,-0.0011,-19.6380,1.4610,-43.1990,
8.2840,0.1120,-0.0398,1.0211,-0.0496,-0.0051,-0.0007,0.0002,-0.0046,-0.0011,-19.6390,1.4524,-43.1610,
8.2860,0.1120,-0.0398,1.0211,-0.0496,-0.0051,-0.0007,-0.0004,-0.0000,-0.0005,-19.6390,1.4524,-43.1610,
8.2870,0.1092,-0.0410,1.0214,-0.0496,-0.0051,-0.0007,-0.0004,-0.0000,-0.0005,-19.6390,1.4524,-43.1610,
8.2880,0.1065,-0.0420,1.0202,-0.0496,-0.0051,-0.0007,-0.0004,-0.0000,-0.0005,-19.6390,1.4524,-43.1610,
8.3060,0.1042,-0.0416,1.0205,-0.0496,-0.0051,-0.0007,-0.0004,-0.0000,-0.0005,-19.6390,1.4524,-43.1610,
8.3070,0.1042,-0.0416,1.0205,-0.0496,-0.0051,-0.0007,0.0036,0.0003,0.0005,-19.6390,1.4524,-43.1610,
8.3080,0.1032,-0.0410,1.0201,-0.0496,-0.0051,-0.0007,0.0036,0.0003,0.0005,-19.6390,1.4524,-43.1610,
8.3080,0.1032,-0.0410,1.0201,0.0324,-0.0061,0.0014,0.0036,0.0003,0.0005,-19.6390,1.4524,-43.1610,
8.3500,0.1032,-0.0410,1.0201,0.0324,-0.0061,0.0014,0.0014,-0.0028,-0.0002,-19.6390,1.4524,-43.1610,
8.3510,0.1047,-0.0400,1.0212,0.0324,-0.0061,0.0014,0.0014,-0.0028,-0.0002,-19.6390,1.4524,-43.1610,
8.3520,0.1069,-0.0397,1.0212,0.0324,-0.0061,0.0014,0.0014,-0.0028,-0.0002,-19.6390,1.4524,-43.1610,
8.3520,0.1069,-0.0397,1.0212,0.0324,-0.0061,0.0014,0.0014,-0.0028,-0.0002,-19.6514,1.4302,-43.2271,
8.3650,0.1068,-0.0384,1.0224,0.0324,-0.0061,0.0014,0.0014,-0.0028,-0.0002,-19.6514,1.4302,-43.2271,
8.3650,0.1068,-0.0384,1.0224,-0.0158,-0.0230,-0.0108,0.0014,-0.0028,-0.0002,-19.6514,1.4302,-43.2271,
8.4180,0.1068,-0.0384,1.0224,-0.0158,-0.0230,-0.0108,0.0014,-0.0028,-0.0002,-19.6885,1.4188,-43.2291,
8.4190,0.1068,-0.0384,1.0224,-0.0158,-0.0230,-0.0108,0.0008,-0.0019,0.0005,-19.6885,1.4188,-43.2291,
8.4190,0.1057,-0.0388,1.0222,-0.0158,-0.0230,-0.0108,0.0008,-0.0019,0.0005,-19.6885,1.4188,-43.2291,
8.4200,0.1041,-0.0388,1.0223,-0.0158,-0.0230,-0.0108,0.0008,-0.0019,0.0005,-19.6885,1.4188,-43.2291,
8.4390,0.1041,-0.0388,1.0223,-0.0158,-0.0230,-0.0108,0.0005,-0.0006,0.0005,-19.6885,1.4188,-43.2291,
8.4400,0.1035,-0.0383,1.0223,-0.0158,-0.0230,-0.0108,0.0005,-0.0006,0.0005,-19.6885,1.4188,-43.2291,
8.4410,0.1043,-0.0383,1.0223,-0.0158,-0.0230,-0.0108,0.0005,-0.0006,0.0005,-19.6885,1.4188,-43.2291,
8.4410,0.1043,-0.0383,1.0223,-0.0077,-0.0019,0.0005,0.0005,-0.0006,0.0005,-19.6885,1.4188,-43.2291,
8.4840,0.1055,-0.0375,1.0217,-0.0077,-0.0019,0.0005,0.0005,-0.0006,0.0005,-19.6885,1.4188,-43.2291,
8.4850,0.1079,-0.0381,1.0163,-0.0077,-0.0019,0.0005,0.0005,-0.0006,0.0005,-19.6885,1.4188,-43.2291,
8.4850,0.1079,-0.0381,1.0163,-0.0077,-0.0019,0.0005,0.0008,-0.0052,0.0005,-19.6885,1.4188,-43.2291,
8.4860,0.1079,-0.0381,1.0163,-0.0077,-0.0019,0.0005,0.0008,-0.0052,0.0005,-19.7264,1.3873,-43.2452,
8.5010,0.1094,-0.0424,1.0151,-0.0077,-0.0019,0.0005,0.0008,-0.0052,0.0005,-19.7264,1.3873,-43.2452,
8.5030,0.1094,-0.0424,1.0151,-0.0077,-0.0019,0.0005,-0.0035,-0.0061,0.0001,-19.7264,1.3873,-43.2452,
8.5030,0.1094,-0.0424,1.0151,-0.0264,0.0062,0.0066,-0.0035,-0.0061,0.0001,-19.7264,1.3873,-43.2452,
8.5530,0.1094,-0.0424,1.0151,-0.0264,0.0062,0.0066,-0.0080,0.0012,0.0011,-19.7264,1.3873,-43.2452,
8.5540,0.1099,-0.0445,1.0205,-0.0264,0.0062,0.0066,-0.0080,0.0012,0.0011,-19.7264,1.3873,-43.2452,
8.5550,0.1071,-0.0395,1.0313,-0.0264,0.0062,0.0066,-0.0080,0.0012,0.0011,-19.7264,1.3873,-43.2452,
8.5550,0.1071,-0.0395,1.0313,-0.0264,0.0062,0.0066,-0.0080,0.0012,0.0011,-19.7163,1.3596,-43.2080,
8.5720,0.1038,-0.0388,1.0372,-0.0264,0.0062,0.0066,-0.0080,0.0012,0.0011,-19.7163,1.3596,-43.2080,
8.5780,0.1009,-0.0420,1.0196,-0.0264,0.0062,0.0066,-0.0080,0.0012,0.0011,-19.7163,1.3596,-43.2080,
8.5790,0.1009,-0.0420,1.0196,-0.0264,0.0062,0.0066,0.0094,-0.0122,-0.0020,-19.7163,1.3596,-43.2080,
8.5800,0.1009,-0.0420,1.0196,0.0059,-0.0096,-0.0326,0.0094,-0.0122,-0.0020,-19.7163,1.3596,-43.2080,
8.6180,0.1048,-0.0438,0.9907,0.0059,-0.0096,-0.0326,0.0094,-0.0122,-0.0020,-19.7163,1.3596,-43.2080,
8.6190,0.1048,-0.0438,0.9907,0.0059,-0.0096,-0.0326,0.0094,-0.0122,-0.0020,-19.7765,1.3773,-43.1833,
8.6370,0.1101,-0.0370,1.0227,0.0059,-0.0096,-0.0326,0.0094,-0.0122,-0.0020,-19.7765,1.3773,-43.1833,
8.6380,0.1101,-0.0370,1.0227,0.0059,-0.0096,-0.0326,-0.0056,-0.0190,-0.0026,-19.7765,1.3773,-43.1833,
8.6390,0.1164,-0.0354,1.0426,0.0059,-0.0096,-0.0326,-0.0056,-0.0190,-0.0026,-19.7765,1.3773,-43.1833,
8.6400,0.1164,-0.0354,1.0426,-0.0308,-0.0120,0.0633,-0.0056,-0.0190,-0.0026,-19.7765,1.3773,-43.1833,
8.6840,0.1184,-0.0365,1.0089,-0.0308,-0.0120,0.0633,-0.0056,-0.0190,-0.0026,-19.7765,1.3773,-43.1833,
8.6850,0.1184,-0.0365,1.0089,-0.0308,-0.0120,0.0633,-0.0056,-0.0190,-0.0026,-19.7855,1.4353,-43.1929,
8.6850,0.1184,-0.0365,1.0089,-0.0308,-0.0120,0.0633,0.0082,-0.0003,0.0041,-19.7855,1.4353,-43.1929,
8.6860,0.1097,-0.0389,1.0131,-0.0308,-0.0120,0.0633,0.0082,-0.0003,0.0041,-19.7855,1.4353,-43.1929,
8.7050,0.1015,-0.0402,1.0367,-0.0308,-0.0120,0.0633,0.0082,-0.0003,0.0041,-19.7855,1.4353,-43.1929,
8.7060,0.1015,-0.0402,1.0367,-0.0308,-0.0120,0.0633,-0.0062,0.0180,0.0047,-19.7855,1.4353,-43.1929,
8.7150,0.0944,-0.0443,1.0255,-0.0308,-0.0120,0.0633,-0.0062,0.0180,0.0047,-19.7855,1.4353,-43.1929,
8.7160,0.0944,-0.0443,1.0255,0.0402,0.0108,-0.0328,-0.0062,0.0180,0.0047,-19.7855,1.4353,-43.1929,
8.7500,0.0920,-0.0410,1.0228,0.0402,0.0108,-0.0328,-0.0062,0.0180,0.0047,-19.7855,1.4353,-43.1929,
8.7510,0.0920,-0.0410,1.0228,0.0402,0.0108,-0.0328,0.0002,-0.0122,0.0017,-19.7855,1.4353,-43.1929,
8.7510,0.0920,-0.0410,1.0228,0.0402,0.0108,-0.0328,0.0002,-0.0122,0.0017,-19.8103,1.4129,-43.2465,
8.7710,0.0981,-0.0362,1.0191,0.0402,0.0108,-0.0328,0.0002,-0.0122,0.0017,-19.8103,1.4129,-43.2465,
8.7730,0.1110,-0.0388,1.0227,0.0402,0.0108,-0.0328,0.0002,-0.0122,0.0017,-19.8103,1.4129,-43.2465,
8.7740,0.1110,-0.0388,1.0227,0.0402,0.0108,-0.0328,-0.0047,-0.0220,-0.0032,-19.8103,1.4129,-43.2465,
8.7740,0.1110,-0.0388,1.0227,-0.0444,-0.0091,0.0038,-0.0047,-0.0220,-0.0032,-19.8103,1.4129,-43.2465,
8.8180,0.1110,-0.0388,1.0227,-0.0444,-0.0091,0.0038,-0.0028,-0.0055,-0.0047,-19.8103,1.4129,-43.2465,
8.8200,0.1198,-0.0421,1.0212,-0.0444,-0.0091,0.0038,-0.0028,-0.0055,-0.0047,-19.8103,1.4129,-43.2465,
8.8210,0.1210,-0.0436,1.0224,-0.0444,-0.0091,0.0038,-0.0028,-0.0055,-0.0047,-19.8103,1.4129,-43.2465,
8.8210,0.1210,-0.0436,1.0224,-0.0444,-0.0091,0.0038,-0.0028,-0.0055,-0.0047,-19.7366,1.4260,-43.2431,
8.8390,0.1148,-0.0421,1.0250,-0.0444,-0.0091,0.0038,-0.0028,-0.0055,-0.0047,-19.7366,1.4260,-43.2431,
8.8520,0.1148,-0.0421,1.0250,-0.0444,-0.0091,0.0038,-0.0016,0.0107,0.0008,-19.7366,1.4260,-43.2431,
8.8540,0.1058,-0.0406,1.0210,-0.0444,-0.0091,0.0038,-0.0016,0.0107,0.0008,-19.7366,1.4260,-43.2431,
8.8540,0.1058,-0.0406,1.0210,-0.0449,0.0064,0.0001,-0.0016,0.0107,0.0008,-19.7366,1.4260,-43.2431,
8.8840,0.1006,-0.0393,1.0213,-0.0449,0.0064,0.0001,-0.0016,0.0107,0.0008,-19.7366,1.4260,-43.2431,
8.8850,0.1006,-0.0393,1.0213,-0.0449,0.0064,0.0001,-0.0016,0.0107,0.0008,-19.7482,1.4463,-43.2037,
8.9070,0.0998,-0.0400,1.0212,-0.0449,0.0064,0.0001,-0.0016,0.0107,0.0008,-19.7482,1.4463,-43.2037,
8.9080,0.0998,-0.0400,1.0212,-0.0449,0.0064,0.0001,-0.0010,0.0042,0.0017,-19.7482,1.4463,-43.2037,
8.9100,0.1031,-0.0395,1.0239,-0.0449,0.0064,0.0001,-0.0010,0.0042,0.0017,-19.7482,1.4463,-43.2037,
8.9110,0.1031,-0.0395,1.0239,0.0637,-0.0203,0.0095,-0.0010,0.0042,0.0017,-19.7482,1.4463,-43.2037,
8.9510,0.1031,-0.0395,1.0239,0.0637,-0.0203,0.0095,-0.0010,0.0042,0.0017,-19.7462,1.4636,-43.2797,
8.9520,0.1068,-0.0402,1.0242,0.0637,-0.0203,0.0095,-0.0010,0.0042,0.0017,-19.7462,1.4636,-43.2797,
8.9530,0.1088,-0.0406,1.0239,0.0637,-0.0203,0.0095,-0.0010,0.0042,0.0017,-19.7462,1.4636,-43.2797,
8.9530,0.1088,-0.0406,1.0239,0.0637,-0.0203,0.0095,-0.0031,-0.0046,-0.0044,-19.7462,1.4636,-43.2797,
8.9720,0.1088,-0.0406,1.0239,0.0637,-0.0203,0.0095,-0.0019,-0.0046,-0.0044,-19.7462,1.4636,-43.2797,
8.9730,0.1124,-0.0383,1.0170,0.0637,-0.0203,0.0095,-0.0019,-0.0046,-0.0044,-19.7462,1.4636,-43.2797,
8.9880,0.1124,-0.0383,1.0170,-0.0567,0.0050,0.0073,-0.0019,-0.0046,-0.0044,-19.7462,1.4636,-43.2797,
8.9900,0.1127,-0.0399,1.0253,-0.0567,0.0050,0.0073,-0.0019,-0.0046,-0.0044,-19.7462,1.4636,-43.2797,
9.0180,0.1085,-0.0431,1.0235,-0.0567,0.0050,0.0073,-0.0019,-0.0046,-0.0044,-19.7462,1.4636,-43.2797,
9.0190,0.1085,-0.0431,1.0235,-0.0567,0.0050,0.0073,-0.0025,0.0107,0.0008,-19.7462,1.4636,-43.2797,
9.0220,0.1085,-0.0431,1.0235,-0.0567,0.0050,0.0073,-0.0025,0.0107,0.0008,-19.7426,1.5433,-43.2361,
9.0390,0.1027,-0.0417,1.0211,-0.0567,0.0050,0.0073,-0.0025,0.0107,0.0008,-19.7426,1.5433,-43.2361,
9.0460,0.1027,-0.0417,1.0211,0.0303,0.0058,0.0062,-0.0025,0.0107,0.0008,-19.7426,1.5433,-43.2361,
9.0480,0.0993,-0.0420,1.0192,0.0303,0.0058,0.0062,-0.0025,0.0107,0.0008,-19.7426,1.5433,-43.2361,
9.0480,0.0993,-0.0420,1.0192,0.0303,0.0058,0.0062,-0.0007,0.0061,0.0041,-19.7426,1.5433,-43.2361,
9.0840,0.1003,-0.0406,1.0228,0.0303,0.0058,0.0062,-0.0007,0.0061,0.0041,-19.7426,1.5433,-43.2361,
9.0850,0.1003,-0.0406,1.0228,0.0303,0.0058,0.0062,-0.0007,0.0061,0.0041,-19.7298,1.5533,-43.2478,
9.1050,0.1003,-0.0406,1.0228,0.0303,0.0058,0.0062,-0.0028,-0.0049,0.0005,-19.7298,1.5533,-43.2478,
9.1060,0.1052,-0.0383,1.0234,0.0303,0.0058,0.0062,-0.0028,-0.0049,0.0005,-19.7298,1.5533,-43.2478,
9.1070,0.1085,-0.0400,1.0197,0.0303,0.0058,0.0062,-0.0028,-0.0049,0.0005,-19.7298,1.5533,-43.2478,
9.1240,0.1110,-0.0415,1.0230,0.0303,0.0058,0.0062,-0.0028,-0.0049,0.0005,-19.7298,1.5533,-43.2478,
9.1250,0.1110,-0.0415,1.0230,0.0303,0.0058,0.0062,-0.0050,-0.0101,-0.0050,-19.7298,1.5533,-43.2478,
9.1260,0.1110,-0.0415,1.0230,-0.0453,-0.0140,-0.0036,-0.0050,-0.0101,-0.0050,-19.7298,1.5533,-43.2478,
9.1500,0.1110,-0.0415,1.0230,-0.0453,-0.0140,-0.0036,-0.0050,-0.0101,-0.0050,-19.6924,1.5529,-43.3108,
9.1520,0.1125,-0.0419,1.0236,-0.0453,-0.0140,-0.0036,-0.0050,-0.0101,-0.0050,-19.6924,1.5529,-43.3108,
9.1730,0.1125,-0.0419,1.0236,-0.0453,-0.0140,-0.0036,-0.0031,-0.0040,-0.0029,-19.6924,1.5529,-43.3108,
9.1740,0.1113,-0.0411,1.0207,-0.0453,-0.0140,-0.0036,-0.0031,-0.0040,-0.0029,-19.6924,1.5529,-43.3108,
9.1820,0.1083,-0.0417,1.0221,-0.0453,-0.0140,-0.0036,-0.0031,-0.0040,-0.0029,-19.6924,1.5529,-43.3108,
9.1840,0.1083,-0.0417,1.0221,-0.0056,0.0080,0.0060,-0.0031,-0.0040,-0.0029,-19.6924,1.5529,-43.3108,
9.2160,0.1043,-0.0424,1.0216,-0.0056,0.0080,0.0060,-0.0031,-0.0040,-0.0029,-19.6924,1.5529,-43.3108,
9.2170,0.1043,-0.0424,1.0216,-0.0056,0.0080,0.0060,-0.0022,0.0021,-0.0008,-19.6924,1.5529,-43.3108,
9.2180,0.1043,-0.0424,1.0216,-0.0056,0.0080,0.0060,-0.0022,0.0021,-0.0008,-19.6949,1.5258,-43.2355,
9.2380,0.1038,-0.0414,1.0216,-0.0056,0.0080,0.0060,-0.0022,0.0021,-0.0008,-19.6949,1.5258,-43.2355,
9.2620,0.1038,-0.0414,1.0216,0.0207,-0.0086,0.0025,-0.0022,0.0021,-0.0008,-19.6949,1.5258,-43.2355,
9.2640,0.1048,-0.0417,1.0233,0.0207,-0.0086,0.0025,-0.0022,0.0021,-0.0008,-19.6949,1.5258,-43.2355,
9.2650,0.1048,-0.0417,1.0233,0.0207,-0.0086,0.0025,-0.0001,0.0027,-0.0005,-19.6949,1.5258,-43.2355,
9.2670,0.1077,-0.0420,1.0234,0.0207,-0.0086,0.0025,-0.0001,0.0027,-0.0005,-19.6949,1.5258,-43.2355,
9.2840,0.1079,-0.0411,1.0245,0.0207,-0.0086,0.0025,-0.0001,0.0027,-0.0005,-19.6949,1.5258,-43.2355,
9.2850,0.1079,-0.0411,1.0245,0.0207,-0.0086,0.0025,0.0002,0.0033,0.0008,-19.6949,1.5258,-43.2355,
9.2860,0.1079,-0.0411,1.0245,0.0207,-0.0086,0.0025,0.0002,0.0033,0.0008,-19.7064,1.5457,-43.2089,
9.3060,0.1079,-0.0405,1.0228,0.0207,-0.0086,0.0025,0.0002,0.0033,0.0008,-19.7064,1.5457,-43.2089,
9.3200,0.1079,-0.0405,1.0228,0.0207,-0.0086,0.0025,-0.0028,0.0079,-0.0002,-19.7064,1.5457,-43.2089,
9.3210,0.1047,-0.0408,1.0240,0.0207,-0.0086,0.0025,-0.0028,0.0079,-0.0002,-19.7064,1.5457,-43.2089,
9.3220,0.1047,-0.0408,1.0240,-0.0181,-0.0058,0.0067,-0.0028,0.0079,-0.0002,-19.7064,1.5457,-43.2089,
9.3510,0.1047,-0.0408,1.0240,-0.0181,-0.0058,0.0067,-0.0028,0.0079,-0.0002,-19.7782,1.5613,-43.2362,
9.3530,0.1027,-0.0406,1.0221,-0.0181,-0.0058,0.0067,-0.0028,0.0079,-0.0002,-19.7782,1.5613,-43.2362,
9.3730,0.1037,-0.0409,1.0214,-0.0181,-0.0058,0.0067,-0.0028,0.0079,-0.0002,-19.7782,1.5613,-43.2362,
9.3740,0.1037,-0.0409,1.0214,-0.0181,-0.0058,0.0067,-0.0041,0.0036,-0.0008,-19.7782,1.5613,-43.2362,
9.4000,0.1037,-0.0409,1.0214,-0.0056,0.0070,0.0154,-0.0041,0.0036,-0.0008,-19.7782,1.5613,-43.2362,
9.4020,0.1050,-0.0404,1.0178,-0.0056,0.0070,0.0154,-0.0041,0.0036,-0.0008,-19.7782,1.5613,-43.2362,
9.4030,0.1050,-0.0404,1.0178,-0.0056,0.0070,0.0154,-0.0080,0.0009,-0.0005,-19.7782,1.5613,-43.2362,
9.4030,0.1076,-0.0422,1.0172,-0.0056,0.0070,0.0154,-0.0080,0.0009,-0.0005,-19.7782,1.5613,-43.2362,
9.4180,0.1076,-0.0422,1.0172,-0.0056,0.0070,0.0154,-0.0080,0.0009,-0.0005,-19.8032,1.5618,-43.1856,
9.4390,0.1077,-0.0460,1.0250,-0.0056,0.0070,0.0154,-0.0080,0.0009,-0.0005,-19.8032,1.5618,-43.1856,
9.4400,0.1076,-0.0436,1.0283,-0.0056,0.0070,0.0154,-0.0080,0.0009,-0.0005,-19.8032,1.5618,-43.1856,
9.4410,0.1076,-0.0436,1.0283,-0.0056,0.0070,0.0154,-0.0090,0.0009,-0.0002,-19.8032,1.5618,-43.1856,
9.4570,0.1076,-0.0436,1.0283,-0.0184,0.0056,-0.0258,-0.0090,0.0009,-0.0002,-19.8032,1.5618,-43.1856,
9.4580,0.1050,-0.0414,1.0305,-0.0184,0.0056,-0.0258,-0.0090,0.0009,-0.0002,-19.8032,1.5618,-43.1856,
9.4840,0.1050,-0.0414,1.0305,-0.0184,0.0056,-0.0258,0.0057,-0.0077,-0.0002,-19.8032,1.5618,-43.1856,
9.4860,0.1050,-0.0414,1.0305,-0.0184,0.0056,-0.0258,0.0057,-0.0077,-0.0002,-19.7898,1.5926,-43.1576,
9.4870,0.1028,-0.0426,1.0294,-0.0184,0.0056,-0.0258,0.0057,-0.0077,-0.0002,-19.7898,1.5926,-43.1576,
9.5050,0.1043,-0.0461,1.0114,-0.0184,0.0056,-0.0258,0.0057,-0.0077,-0.0002,-19.7898,1.5926,-43.1576,
9.5360,0.1043,-0.0461,1.0114,-0.0091,-0.0124,0.0617,0.0057,-0.0077,-0.0002,-19.7898,1.5926,-43.1576,
9.5380,0.1043,-0.0461,1.0114,-0.0091,-0.0124,0.0617,0.0023,-0.0119,0.0011,-19.7898,1.5926,-43.1576,
9.5390,0.1102,-0.0433,0.9896,-0.0091,-0.0124,0.0617,0.0023,-0.0119,0.0011,-19.7898,1.5926,-43.1576,
9.5390,0.1126,-0.0376,1.0418,-0.0091,-0.0124,0.0617,0.0023,-0.0119,0.0011,-19.7898,1.5926,-43.1576,
9.5490,0.1126,-0.0376,1.0418,-0.0091,-0.0124,0.0617,0.0023,-0.0119,0.0011,-19.7321,1.5368,-43.1462,
9.5720,0.1157,-0.0388,1.0335,-0.0091,-0.0124,0.0617,0.0023,-0.0119,0.0011,-19.7321,1.5368,-43.1462,
9.5730,0.1157,-0.0388,1.0335,-0.0091,-0.0124,0.0617,-0.0102,0.0088,-0.0005,-19.7321,1.5368,-43.1462,
9.5930,0.1157,-0.0388,1.0335,-0.0091,-0.0124,0.0617,-0.0065,0.0119,-0.0038,-19.7321,1.5368,-43.1462,
9.5940,0.1113,-0.0414,1.0037,-0.0091,-0.0124,0.0617,-0.0065,0.0119,-0.0038,-19.7321,1.5368,-43.1462,
9.5950,0.0992,-0.0417,1.0345,-0.0091,-0.0124,0.0617,-0.0065,0.0119,-0.0038,-19.7321,1.5368,-43.1462,
9.5960,0.0992,-0.0417,1.0345,0.0149,-0.0017,-0.0588,-0.0065,0.0119,-0.0038,-19.7321,1.5368,-43.1462,
9.6170,0.0937,-0.0453,1.0307,0.0149,-0.0017,-0.0588,-0.0065,0.0119,-0.0038,-19.7321,1.5368,-43.1462,
9.6180,0.0937,-0.0453,1.0307,0.0149,-0.0017,-0.0588,-0.0065,0.0119,-0.0038,-19.7675,1.5655,-43.1199,
9.6380,0.0947,-0.0453,1.0174,0.0149,-0.0017,-0.0588,-0.0065,0.0119,-0.0038,-19.7675,1.5655,-43.1199,
9.6390,0.0947,-0.0453,1.0174,0.0149,-0.0017,-0.0588,0.0020,-0.0122,0.0017,-19.7675,1.5655,-43.1199,
9.6720,0.1014,-0.0411,1.0224,0.0149,-0.0017,-0.0588,0.0020,-0.0122,0.0017,-19.7675,1.5655,-43.1199,
9.6730,0.1014,-0.0411,1.0224,0.0149,-0.0017,-0.0588,-0.0062,-0.0110,0.0026,-19.7675,1.5655,-43.1199,
9.6730,0.1014,-0.0411,1.0224,-0.0085,0.0114,0.0365,-0.0062,-0.0110,0.0026,-19.7675,1.5655,-43.1199,
9.6740,0.1098,-0.0410,1.0230,-0.0085,0.0114,0.0365,-0.0062,-0.0110,0.0026,-19.7675,1.5655,-43.1199,
9.6840,0.1098,-0.0410,1.0230,-0.0085,0.0114,0.0365,-0.0062,-0.0110,0.0026,-19.7427,1.5878,-43.0663,
9.7050,0.1173,-0.0435,1.0238,-0.0085,0.0114,0.0365,-0.0062,-0.0110,0.0026,-19.7427,1.5878,-43.0663,
9.7310,0.1173,-0.0435,1.0238,-0.0085,0.0114,0.0365,-0.0053,0.0024,-0.0050,-19.7427,1.5878,-43.0663,
9.7340,0.1164,-0.0456,1.0235,-0.0085,0.0114,0.0365,-0.0053,0.0024,-0.0050,-19.7427,1.5878,-43.0663,
9.7340,0.1094,-0.0459,1.0227,-0.0085,0.0114,0.0365,-0.0053,0.0024,-0.0050,-19.7427,1.5878,-43.0663,
9.7350,0.1094,-0.0459,1.0227,-0.0545,-0.0039,-0.0071,-0.0053,0.0024,-0.0050,-19.7427,1.5878,-43.0663,
9.7500,0.1024,-0.0458,1.0224,-0.0545,-0.0039,-0.0071,-0.0053,0.0024,-0.0050,-19.7427,1.5878,-43.0663,
9.7510,0.1024,-0.0458,1.0224,-0.0545,-0.0039,-0.0071,-0.0038,0.0122,-0.0057,-19.7427,1.5878,-43.0663,
9.7520,0.1024,-0.0458,1.0224,-0.0545,-0.0039,-0.0071,-0.0038,0.0122,-0.0057,-19.7283,1.6162,-43.1154,
9.7720,0.1002,-0.0444,1.0214,-0.0545,-0.0039,-0.0071,-0.0038,0.0122,-0.0057,-19.7283,1.6162,-43.1154,
9.8090,0.1002,-0.0444,1.0214,0.0601,-0.0209,0.0082,-0.0038,0.0122,-0.0057,-19.7283,1.6162,-43.1154,
9.8100,0.1002,-0.0444,1.0214,0.0601,-0.0209,0.0082,-0.0019,0.0076,0.0011,-19.7283,1.6162,-43.1154,
9.8110,0.1008,-0.0432,1.0230,0.0601,-0.0209,0.0082,-0.0019,0.0076,0.0011,-19.7283,1.6162,-43.1154,
9.8110,0.1035,-0.0442,1.0253,0.0601,-0.0209,0.0082,-0.0019,0.0076,0.0011,-19.7283,1.6162,-43.1154,
9.8170,0.1035,-0.0442,1.0253,0.0601,-0.0209,0.0082,-0.0019,0.0076,0.0011,-19.6921,1.6076,-43.1275,
9.8390,0.1035,-0.0442,1.0253,0.0601,-0.0209,0.0082,0.0008,0.0024,-0.0008,-19.6921,1.6076,-43.1275,
9.8400,0.1050,-0.0452,1.0262,0.0601,-0.0209,0.0082,0.0008,0.0024,-0.0008,-19.6921,1.6076,-43.1275,
9.8680,0.1050,-0.0452,1.0262,-0.0454,-0.0105,0.0089,0.0008,0.0024,-0.0008,-19.6921,1.6076,-43.1275,
9.8690,0.1050,-0.0444,1.0223,-0.0454,-0.0105,0.0089,0.0008,0.0024,-0.0008,-19.6921,1.6076,-43.1275,
9.8700,0.1075,-0.0415,1.0159,-0.0454,-0.0105,0.0089,0.0008,0.0024,-0.0008,-19.6921,1.6076,-43.1275,
9.8700,0.1075,-0.0415,1.0159,-0.0454,-0.0105,0.0089,0.0014,-0.0043,-0.0050,-19.6921,1.6076,-43.1275,
9.8830,0.1075,-0.0415,1.0159,-0.0454,-0.0105,0.0089,0.0014,-0.0043,-0.0050,-19.6519,1.6780,-43.1217,
9.9050,0.1080,-0.0406,1.0186,-0.0454,-0.0105,0.0089,0.0014,-0.0043,-0.0050,-19.6519,1.6780,-43.1217,
9.9070,0.1043,-0.0427,1.0252,-0.0454,-0.0105,0.0089,0.0014,-0.0043,-0.0050,-19.6519,1.6780,-43.1217,
9.9080,0.1043,-0.0427,1.0252,-0.0454,-0.0105,0.0089,-0.0022,0.0042,-0.0029,-19.6519,1.6780,-43.1217,
9.9450,0.1025,-0.0438,1.0189,-0.0454,-0.0105,0.0089,-0.0022,0.0042,-0.0029,-19.6519,1.6780,-43.1217,
9.9460,0.1025,-0.0438,1.0189,-0.0454,-0.0105,0.0089,0.0054,-0.0046,0.0017,-19.6519,1.6780,-43.1217,
9.9460,0.1025,-0.0438,1.0189,-0.0001,-0.0016,-0.0122,0.0054,-0.0046,0.0017,-19.6519,1.6780,-43.1217,
9.9470,0.1031,-0.0426,1.0173,-0.0001,-0.0016,-0.0122,0.0054,-0.0046,0.0017,-19.6519,1.6780,-43.1217,
9.9500,0.1031,-0.0426,1.0173,-0.0001,-0.0016,-0.0122,0.0054,-0.0046,0.0017,-19.6142,1.6768,-43.2104,
9.9720,0.1032,-0.0409,1.0253,-0.0001,-0.0016,-0.0122,0.0054,-0.0046,0.0017,-19.6142,1.6768,-43.2104,
10.0040,0.1032,-0.0409,1.0253,-0.0252,-0.0007,-0.0157,0.0054,-0.0046,0.0017,-19.6142,1.6768,-43.2104,
10.0060,0.1032,-0.0409,1.0253,-0.0252,-0.0007,-0.0157,0.0027,-0.0089,0.0011,-19.6142,1.6768,-43.2104,
10.0070,0.1050,-0.0421,1.0257,-0.0252,-0.0007,-0.0157,0.0027,-0.0089,0.0011,-19.6142,1.6768,-43.2104,
10.0070,0.1077,-0.0431,1.0205,-0.0252,-0.0007,-0.0157,0.0027,-0.0089,0.0011,-19.6142,1.6768,-43.2104,
10.0160,0.1077,-0.0431,1.0205,-0.0252,-0.0007,-0.0157,0.0027,-0.0089,0.0011,-19.7006,1.6533,-43.2149,
10.0380,0.1085,-0.0438,1.0234,-0.0252,-0.0007,-0.0157,0.0027,-0.0089,0.0011,-19.7006,1.6533,-43.2149,
10.0390,0.1085,-0.0438,1.0234,-0.0252,-0.0007,-0.0157,0.0020,-0.0104,0.0014,-19.7006,1.6533,-43.2149,
10.0810,0.1085,-0.0438,1.0234,-0.0252,-0.0007,-0.0157,0.0042,-0.0071,0.0032,-19.7006,1.6533,-43.2149,
10.0820,0.1102,-0.0444,1.0199,-0.0252,-0.0007,-0.0157,0.0042,-0.0071,0.0032,-19.7006,1.6533,-43.2149,
10.0830,0.1094,-0.0442,1.0203,-0.0252,-0.0007,-0.0157,0.0042,-0.0071,0.0032,-19.7006,1.6533,-43.2149,
10.0830,0.1074,-0.0436,1.0229,-0.0252,-0.0007,-0.0157,0.0042,-0.0071,0.0032,-19.7006,1.6533,-43.2149,
10.0840,0.1074,-0.0436,1.0229,-0.0103,0.0036,0.0164,0.0042,-0.0071,0.0032,-19.7006,1.6533,-43.2149,
10.0840,0.1074,-0.0436,1.0229,-0.0103,0.0036,0.0164,0.0042,-0.0071,0.0032,-19.7973,1.6470,-43.2829,
10.1060,0.1074,-0.0436,1.0229,-0.0103,0.0036,0.0164,0.0042,-0.0025,0.0029,-19.7973,1.6470,-43.2829,
10.1080,0.1061,-0.0424,1.0201,-0.0103,0.0036,0.0164,0.0042,-0.0025,0.0029,-19.7973,1.6470,-43.2829,
10.1390,0.1061,-0.0424,1.0201,-0.0103,0.0036,0.0164,0.0057,-0.0012,0.0008,-19.7973,1.6470,-43.2829,
10.1410,0.1044,-0.0436,1.0162,-0.0103,0.0036,0.0164,0.0057,-0.0012,0.0008,-19.7973,1.6470,-43.2829,
10.1410,0.1052,-0.0441,1.0207,-0.0103,0.0036,0.0164,0.0057,-0.0012,0.0008,-19.7973,1.6470,-43.2829,
10.1420,0.1052,-0.0441,1.0207,0.0177,-0.0174,-0.0064,0.0057,-0.0012,0.0008,-19.7973,1.6470,-43.2829,
10.1490,0.1052,-0.0441,1.0207,0.0177,-0.0174,-0.0064,0.0057,-0.0012,0.0008,-19.8333,1.6437,-43.3358,
10.1730,0.1053,-0.0436,1.0211,0.0177,-0.0174,-0.0064,0.0057,-0.0012,0.0008,-19.8333,1.6437,-43.3358,
10.2180,0.1053,-0.0436,1.0211,0.0177,-0.0174,-0.0064,0.0057,-0.0012,0.0008,-19.9052,1.6597,-43.3501,
10.2190,0.1058,-0.0427,1.0218,0.0177,-0.0174,-0.0064,0.0057,-0.0012,0.0008,-19.9052,1.6597,-43.3501,
10.2190,0.1039,-0.0439,1.0227,0.0177,-0.0174,-0.0064,0.0057,-0.0012,0.0008,-19.9052,1.6597,-43.3501,
10.2190,0.1039,-0.0439,1.0227,0.0177,-0.0174,-0.0064,0.0027,-0.0006,0.0014,-19.9052,1.6597,-43.3501,
10.2190,0.1039,-0.0439,1.0227,0.0177,-0.0174,-0.0064,0.0011,-0.0037,-0.0002,-19.9052,1.6597,-43.3501,
10.2200,0.1028,-0.0437,1.0219,0.0177,-0.0174,-0.0064,0.0011,-0.0037,-0.0002,-19.9052,1.6597,-43.3501,
10.2200,0.1028,-0.0437,1.0219,-0.0181,-0.0097,-0.0233,0.0011,-0.0037,-0.0002,-19.9052,1.6597,-43.3501,
10.2380,0.1053,-0.0436,1.0205,-0.0181,-0.0097,-0.0233,0.0011,-0.0037,-0.0002,-19.9052,1.6597,-43.3501,
10.2770,0.1059,-0.0426,1.0242,-0.0181,-0.0097,-0.0233,0.0011,-0.0037,-0.0002,-19.9052,1.6597,-43.3501,
10.2780,0.1059,-0.0426,1.0242,-0.0181,-0.0097,-0.0233,-0.0001,-0.0006,0.0011,-19.9052,1.6597,-43.3501,
10.2780,0.1071,-0.0425,1.0167,-0.0181,-0.0097,-0.0233,-0.0001,-0.0006,0.0011,-19.9052,1.6597,-43.3501,
10.2790,0.1071,-0.0425,1.0167,-0.0237,-0.0093,0.0019,-0.0001,-0.0006,0.0011,-19.9052,1.6597,-43.3501,
10.2830,0.1071,-0.0425,1.0167,-0.0237,-0.0093,0.0019,-0.0001,-0.0006,0.0011,-19.9047,1.6695,-43.3495,
10.3050,0.1091,-0.0436,1.0178,-0.0237,-0.0093,0.0019,-0.0001,-0.0006,0.0011,-19.9047,1.6695,-43.3495,
10.3070,0.1091,-0.0436,1.0178,-0.0237,-0.0093,0.0019,-0.0013,0.0012,0.0017,-19.9047,1.6695,-43.3495,
10.3510,0.1091,-0.0436,1.0178,-0.0237,-0.0093,0.0019,-0.0074,0.0042,0.0017,-19.9047,1.6695,-43.3495,
10.3520,0.1085,-0.0464,1.0266,-0.0237,-0.0093,0.0019,-0.0074,0.0042,0.0017,-19.9047,1.6695,-43.3495,
10.3520,0.1066,-0.0466,1.0299,-0.0237,-0.0093,0.0019,-0.0074,0.0042,0.0017,-19.9047,1.6695,-43.3495,
10.3530,0.1066,-0.0466,1.0299,-0.0237,-0.0093,0.0019,-0.0074,0.0042,0.0017,-19.8793,1.6903,-43.3473,
10.3530,0.1066,-0.0466,1.0299,-0.0023,-0.0003,-0.0165,-0.0074,0.0042,0.0017,-19.8793,1.6903,-43.3473,
10.3530,0.1039,-0.0435,1.0245,-0.0023,-0.0003,-0.0165,-0.0074,0.0042,0.0017,-19.8793,1.6903,-43.3473,
10.4130,0.1002,-0.0431,1.0229,-0.0023,-0.0003,-0.0165,-0.0074,0.0042,0.0017,-19.8793,1.6903,-43.3473,
10.4140,0.1035,-0.0470,1.0091,-0.0023,-0.0003,-0.0165,-0.0074,0.0042,0.0017,-19.8793,1.6903,-43.3473,
10.4150,0.1107,-0.0439,0.9889,-0.0023,-0.0003,-0.0165,-0.0074,0.0042,0.0017,-19.8793,1.6903,-43.3473,
10.4160,0.1107,-0.0439,0.9889,-0.0063,-0.0181,0.0390,-0.0074,0.0042,0.0017,-19.8793,1.6903,-43.3473,
10.4160,0.1107,-0.0439,0.9889,-0.0063,-0.0181,0.0390,0.0039,-0.0129,-0.0029,-19.8793,1.6903,-43.3473,
10.4170,0.1107,-0.0439,0.9889,-0.0063,-0.0181,0.0390,-0.0041,-0.0138,-0.0047,-19.8793,1.6903,-43.3473,
10.4170,0.1107,-0.0439,0.9889,-0.0063,-0.0181,0.0390,-0.0041,-0.0138,-0.0047,-19.8705,1.6327,-43.3249,
10.4390,0.1114,-0.0380,1.0426,-0.0063,-0.0181,0.0390,-0.0041,-0.0138,-0.0047,-19.8705,1.6327,-43.3249,
10.4830,0.1158,-0.0413,1.0308,-0.0063,-0.0181,0.0390,-0.0041,-0.0138,-0.0047,-19.8705,1.6327,-43.3249,
10.4840,0.1158,-0.0413,1.0308,-0.0063,-0.0181,0.0390,-0.0041,-0.0138,-0.0047,-19.8817,1.6628,-43.2849,
10.4850,0.1158,-0.0413,1.0308,-0.0063,-0.0181,0.0390,-0.0129,0.0125,-0.0026,-19.8817,1.6628,-43.2849,
10.4850,0.1124,-0.0435,0.9976,-0.0063,-0.0181,0.0390,-0.0129,0.0125,-0.0026,-19.8817,1.6628,-43.2849,
10.4910,0.1124,-0.0435,0.9976,-0.0043,0.0009,-0.1047,-0.0129,0.0125,-0.0026,-19.8817,1.6628,-43.2849,
10.4910,0.1013,-0.0447,1.0327,-0.0043,0.0009,-0.1047,-0.0129,0.0125,-0.0026,-19.8817,1.6628,-43.2849,
10.4910,0.1013,-0.0447,1.0327,-0.0043,0.0009,-0.1047,-0.0074,0.0159,-0.0041,-19.8817,1.6628,-43.2849,
10.5520,0.1013,-0.0447,1.0327,-0.0043,0.0009,-0.1047,0.0033,-0.0125,0.0038,-19.8817,1.6628,-43.2849,
10.5530,0.0953,-0.0496,1.0294,-0.0043,0.0009,-0.1047,0.0033,-0.0125,0.0038,-19.8817,1.6628,-43.2849,
10.5540,0.0951,-0.0467,1.0140,-0.0043,0.0009,-0.1047,0.0033,-0.0125,0.0038,-19.8817,1.6628,-43.2849,
10.5550,0.1004,-0.0419,1.0217,-0.0043,0.0009,-0.1047,0.0033,-0.0125,0.0038,-19.8817,1.6628,-43.2849,
10.5550,0.1004,-0.0419,1.0217,0.0216,0.0133,0.0441,0.0033,-0.0125,0.0038,-19.8817,1.6628,-43.2849,
10.5560,0.1004,-0.0419,1.0217,0.0216,0.0133,0.0441,0.0033,-0.0125,0.0038,-19.7977,1.6368,-43.2964,
10.5720,0.1099,-0.0422,1.0234,0.0216,0.0133,0.0441,0.0033,-0.0125,0.0038,-19.7977,1.6368,-43.2964,
10.5740,0.1099,-0.0422,1.0234,0.0216,0.0133,0.0441,-0.0044,-0.0150,0.0011,-19.7977,1.6368,-43.2964,
10.6170,0.1174,-0.0449,1.0228,0.0216,0.0133,0.0441,-0.0044,-0.0150,0.0011,-19.7977,1.6368,-43.2964,
10.6180,0.1174,-0.0449,1.0228,0.0216,0.0133,0.0441,-0.0044,-0.0150,0.0011,-19.7369,1.6399,-43.2812,
10.6190,0.1169,-0.0456,1.0228,0.0216,0.0133,0.0441,-0.0044,-0.0150,0.0011,-19.7369,1.6399,-43.2812,
10.6190,0.1169,-0.0456,1.0228,0.0216,0.0133,0.0441,-0.0019,-0.0034,-0.0041,-19.7369,1.6399,-43.2812,
10.6270,0.1169,-0.0456,1.0228,-0.0814,-0.0144,0.0071,-0.0019,-0.0034,-0.0041,-19.7369,1.6399,-43.2812,
10.6280,0.1125,-0.0464,1.0207,-0.0814,-0.0144,0.0071,-0.0019,-0.0034,-0.0041,-19.7369,1.6399,-43.2812,
10.6850,0.1046,-0.0445,1.0238,-0.0814,-0.0144,0.0071,-0.0019,-0.0034,-0.0041,-19.7369,1.6399,-43.2812,
10.6880,0.1046,-0.0445,1.0238,-0.0814,-0.0144,0.0071,-0.0019,-0.0034,-0.0041,-19.6877,1.6743,-43.1875,
10.6890,0.1013,-0.0437,1.0183,-0.0814,-0.0144,0.0071,-0.0019,-0.0034,-0.0041,-19.6877,1.6743,-43.1875,
10.6890,0.1013,-0.0437,1.0183,-0.0814,-0.0144,0.0071,0.0027,0.0070,0.0005,-19.6877,1.6743,-43.1875,
10.6900,0.1013,-0.0437,1.0183,-0.0814,-0.0144,0.0071,0.0078,0.0058,0.0056,-19.6877,1.6743,-43.1875,
10.6900,0.1003,-0.0431,1.0178,-0.0814,-0.0144,0.0071,0.0078,0.0058,0.0056,-19.6877,1.6743,-43.1875,
10.6910,0.1003,-0.0431,1.0178,0.0769,-0.0153,0.0088,0.0078,0.0058,0.0056,-19.6877,1.6743,-43.1875,
10.7060,0.1010,-0.0452,1.0222,0.0769,-0.0153,0.0088,0.0078,0.0058,0.0056,-19.6877,1.6743,-43.1875,
10.7510,0.1036,-0.0448,1.0267,0.0769,-0.0153,0.0088,0.0078,0.0058,0.0056,-19.6877,1.6743,-43.1875,
10.7520,0.1036,-0.0448,1.0267,0.0769,-0.0153,0.0088,0.0069,-0.0034,0.0032,-19.6877,1.6743,-43.1875,
10.7520,0.1036,-0.0448,1.0267,0.0769,-0.0153,0.0088,0.0069,-0.0034,0.0032,-19.6389,1.6765,-43.1856,
10.7530,0.1050,-0.0465,1.0245,0.0769,-0.0153,0.0088,0.0069,-0.0034,0.0032,-19.6389,1.6765,-43.1856,
10.7650,0.1050,-0.0465,1.0245,-0.0534,-0.0064,-0.0112,0.0069,-0.0034,0.0032,-19.6389,1.6765,-43.1856,
10.7660,0.1070,-0.0427,1.0172,-0.0534,-0.0064,-0.0112,0.0069,-0.0034,0.0032,-19.6389,1.6765,-43.1856,
10.7670,0.1070,-0.0427,1.0172,-0.0534,-0.0064,-0.0112,0.0085,-0.0129,0.0014,-19.6389,1.6765,-43.1856,
10.8170,0.1070,-0.0427,1.0172,-0.0534,-0.0064,-0.0112,0.0085,-0.0129,0.0014,-19.6407,1.6589,-43.1225,
10.8180,0.1099,-0.0399,1.0173,-0.0534,-0.0064,-0.0112,0.0085,-0.0129,0.0014,-19.6407,1.6589,-43.1225,
10.8180,0.1097,-0.0433,1.0261,-0.0534,-0.0064,-0.0112,0.0085,-0.0129,0.0014,-19.6407,1.6589,-43.1225,
10.8190,0.1097,-0.0433,1.0261,-0.0534,-0.0064,-0.0112,0.0011,-0.0031,0.0044,-19.6407,1.6589,-43.1225,
10.8220,0.1072,-0.0456,1.0230,-0.0534,-0.0064,-0.0112,0.0011,-0.0031,0.0044,-19.6407,1.6589,-43.1225,
10.8230,0.1072,-0.0456,1.0230,-0.0229,-0.0146,0.0150,0.0011,-0.0031,0.0044,-19.6407,1.6589,-43.1225,
10.8840,0.1048,-0.0441,1.0244,-0.0229,-0.0146,0.0150,0.0011,-0.0031,0.0044,-19.6407,1.6589,-43.1225,
10.8850,0.1048,-0.0441,1.0244,-0.0229,-0.0146,0.0150,0.0078,0.0006,0.0093,-19.6407,1.6589,-43.1225,
10.8860,0.1048,-0.0441,1.0244,-0.0229,-0.0146,0.0150,0.0149,-0.0095,0.0060,-19.6407,1.6589,-43.1225,
10.8860,0.1048,-0.0441,1.0244,-0.0229,-0.0146,0.0150,0.0149,-0.0095,0.0060,-19.7266,1.6673,-43.0479,
10.8870,0.1013,-0.0433,1.0260,-0.0229,-0.0146,0.0150,0.0149,-0.0095,0.0060,-19.7266,1.6673,-43.0479,
10.8880,0.1013,-0.0420,1.0212,-0.0229,-0.0146,0.0150,0.0149,-0.0095,0.0060,-19.7266,1.6673,-43.0479,
10.9010,0.1013,-0.0420,1.0212,0.0065,-0.0075,0.0103,0.0149,-0.0095,0.0060,-19.7266,1.6673,-43.0479,
10.9030,0.1032,-0.0421,1.0195,0.0065,-0.0075,0.0103,0.0149,-0.0095,0.0060,-19.7266,1.6673,-43.0479,
10.9500,0.1032,-0.0421,1.0195,0.0065,-0.0075,0.0103,0.0097,-0.0190,0.0011,-19.7266,1.6673,-43.0479,
10.9510,0.1081,-0.0442,1.0236,0.0065,-0.0075,0.0103,0.0097,-0.0190,0.0011,-19.7266,1.6673,-43.0479,
10.9520,0.1081,-0.0442,1.0236,0.0065,-0.0075,0.0103,0.0097,-0.0190,0.0011,-19.8853,1.6606,-43.0411,
10.9530,0.1126,-0.0444,1.0233,0.0065,-0.0075,0.0103,0.0097,-0.0190,0.0011,-19.8853,1.6606,-43.0411,
10.9590,0.1126,-0.0444,1.0233,0.0065,-0.0075,0.0103,0.0085,-0.0174,0.0020,-19.8853,1.6606,-43.0411,
10.9600,0.1140,-0.0430,1.0202,0.0065,-0.0075,0.0103,0.0085,-0.0174,0.0020,-19.8853,1.6606,-43.0411,
10.9600,0.1140,-0.0430,1.0202,-0.0595,-0.0058,0.0094,0.0085,-0.0174,0.0020,-19.8853,1.6606,-43.0411,
11.0180,0.1114,-0.0422,1.0189,-0.0595,-0.0058,0.0094,0.0085,-0.0174,0.0020,-19.8853,1.6606,-43.0411,
11.0200,0.1114,-0.0422,1.0189,-0.0595,-0.0058,0.0094,0.0075,-0.0049,0.0014,-19.8853,1.6606,-43.0411,
11.0200,0.1114,-0.0422,1.0189,-0.0595,-0.0058,0.0094,0.0075,-0.0049,0.0014,-19.9247,1.6107,-43.0199,
11.0210,0.1088,-0.0436,1.0205,-0.0595,-0.0058,0.0094,0.0075,-0.0049,0.0014,-19.9247,1.6107,-43.0199,
11.0370,0.1068,-0.0428,1.0199,-0.0595,-0.0058,0.0094,0.0075,-0.0049,0.0014,-19.9247,1.6107,-43.0199,
11.0390,0.1079,-0.0426,1.0156,-0.0595,-0.0058,0.0094,0.0075,-0.0049,0.0014,-19.9247,1.6107,-43.0199,
11.0390,0.1079,-0.0426,1.0156,-0.0595,-0.0058,0.0094,0.0082,-0.0049,0.0008,-19.9247,1.6107,-43.0199,
11.0400,0.1079,-0.0426,1.0156,0.0268,-0.0199,0.0045,0.0082,-0.0049,0.0008,-19.9247,1.6107,-43.0199,
11.0850,0.1079,-0.0426,1.0156,0.0268,-0.0199,0.0045,0.0020,-0.0052,-0.0017,-19.9247,1.6107,-43.0199,
11.0870,0.1099,-0.0428,1.0216,0.0268,-0.0199,0.0045,0.0020,-0.0052,-0.0017,-19.9247,1.6107,-43.0199,
11.0870,0.1102,-0.0413,1.0266,0.0268,-0.0199,0.0045,0.0020,-0.0052,-0.0017,-19.9247,1.6107,-43.0199,
11.0880,0.1102,-0.0413,1.0266,0.0268,-0.0199,0.0045,0.0020,-0.0052,-0.0017,-19.9843,1.6378,-43.0074,
11.0970,0.1102,-0.0413,1.0266,-0.0104,-0.0113,-0.0257,0.0020,-0.0052,-0.0017,-19.9843,1.6378,-43.0074,
11.0980,0.1079,-0.0414,1.0221,-0.0104,-0.0113,-0.0257,0.0020,-0.0052,-0.0017,-19.9843,1.6378,-43.0074,
11.1500,0.1064,-0.0425,1.0208,-0.0104,-0.0113,-0.0257,0.0020,-0.0052,-0.0017,-19.9843,1.6378,-43.0074,
11.1510,0.1082,-0.0417,1.0233,-0.0104,-0.0113,-0.0257,0.0020,-0.0052,-0.0017,-19.9843,1.6378,-43.0074,
11.1520,0.1082,-0.0417,1.0233,-0.0104,-0.0113,-0.0257,0.0033,-0.0095,0.0020,-19.9843,1.6378,-43.0074,
11.1520,0.1082,-0.0417,1.0233,-0.0104,-0.0113,-0.0257,0.0033,-0.0095,0.0020,-20.0815,1.6658,-42.9192,
11.1720,0.1092,-0.0419,1.0205,-0.0104,-0.0113,-0.0257,0.0033,-0.0095,0.0020,-20.0815,1.6658,-42.9192,
11.1730,0.1092,-0.0419,1.0205,-0.0104,-0.0113,-0.0257,0.0005,-0.0089,0.0044,-20.0815,1.6658,-42.9192,
11.1740,0.1097,-0.0409,1.0155,-0.0104,-0.0113,-0.0257,0.0005,-0.0089,0.0044,-20.0815,1.6658,-42.9192,
11.1740,0.1097,-0.0409,1.0155,-0.0087,-0.0027,0.0149,0.0005,-0.0089,0.0044,-20.0815,1.6658,-42.9192,
11.2160,0.1097,-0.0409,1.0155,-0.0087,-0.0027,0.0149,0.0002,-0.0116,0.0020,-20.0815,1.6658,-42.9192,
11.2170,0.1098,-0.0416,1.0155,-0.0087,-0.0027,0.0149,0.0002,-0.0116,0.0020,-20.0815,1.6658,-42.9192,
11.2170,0.1101,-0.0431,1.0196,-0.0087,-0.0027,0.0149,0.0002,-0.0116,0.0020,-20.0815,1.6658,-42.9192,
11.2180,0.1101,-0.0431,1.0196,-0.0087,-0.0027,0.0149,0.0002,-0.0116,0.0020,-20.1554,1.6310,-42.9881,
11.2320,0.1101,-0.0431,1.0196,-0.0087,-0.0027,0.0149,0.0014,-0.0025,0.0035,-20.1554,1.6310,-42.9881,
11.2330,0.1091,-0.0448,1.0260,-0.0087,-0.0027,0.0149,0.0014,-0.0025,0.0035,-20.1554,1.6310,-42.9881,
11.2330,0.1091,-0.0448,1.0260,-0.0152,0.0001,-0.0098,0.0014,-0.0025,0.0035,-20.1554,1.6310,-42.9881,
11.2830,0.1091,-0.0448,1.0260,-0.0152,0.0001,-0.0098,0.0091,-0.0217,0.0026,-20.1554,1.6310,-42.9881,
11.2840,0.1075,-0.0405,1.0350,-0.0152,0.0001,-0.0098,0.0091,-0.0217,0.0026,-20.1554,1.6310,-42.9881,
