
time,gFx,gFy,gFz,ax,ay,az,wx,wy,wz,Bx,By,Bz,
0.0460,-0.1027,-0.0139,1.0388,0.0000,0.0000,0.0000,0.0000,0.0000,0.0000,0.0000,0.0000,0.0000,
0.0630,-0.0914,-0.0193,1.0273,0.0000,0.0000,0.0000,0.0000,0.0000,0.0000,0.0000,0.0000,0.0000,
0.0640,-0.0914,-0.0193,1.0273,0.0000,0.0000,0.0000,-0.0493,0.0247,0.0160,0.0000,0.0000,0.0000,
0.1100,-0.0904,-0.0218,1.0145,0.0000,0.0000,0.0000,-0.0493,0.0247,0.0160,0.0000,0.0000,0.0000,
0.1110,-0.0993,-0.0231,1.0128,0.0000,0.0000,0.0000,-0.0493,0.0247,0.0160,0.0000,0.0000,0.0000,
0.1120,-0.0993,-0.0231,1.0128,0.0000,0.0000,0.0000,0.0179,0.0363,0.0075,0.0000,0.0000,0.0000,
0.1210,-0.1088,-0.0240,1.0167,0.0000,0.0000,0.0000,0.0179,0.0363,0.0075,0.0000,0.0000,0.0000,
0.1230,-0.1088,-0.0240,1.0167,0.0000,0.0000,0.0000,0.0179,0.0363,0.0075,-9.9570,2.4488,-46.3808,
0.1700,-0.1088,-0.0240,1.0167,0.0000,0.0000,0.0000,0.0167,0.0440,0.0007,-9.9570,2.4488,-46.3808,
0.1710,-0.1141,-0.0242,1.0227,0.0000,0.0000,0.0000,0.0167,0.0440,0.0007,-9.9570,2.4488,-46.3808,
0.1710,-0.1132,-0.0234,1.0275,0.0000,0.0000,0.0000,0.0167,0.0440,0.0007,-9.9570,2.4488,-46.3808,
0.1720,-0.1094,-0.0211,1.0285,0.0000,0.0000,0.0000,0.0167,0.0440,0.0007,-9.9570,2.4488,-46.3808,
0.1720,-0.1094,-0.0211,1.0285,0.0000,0.0000,0.0000,0.0213,0.0201,0.0050,-9.9570,2.4488,-46.3808,
0.1730,-0.1094,-0.0211,1.0285,0.0000,0.0000,0.0000,0.0213,0.0201,0.0050,-9.9570,2.4488,-46.3808,
0.1810,-0.1094,-0.0211,1.0285,0.0000,0.0000,0.0000,0.0213,0.0201,0.0050,-9.9841,2.4790,-46.3979,
0.2400,-0.1057,-0.0194,1.0272,0.0000,0.0000,0.0000,0.0213,0.0201,0.0050,-9.9841,2.4790,-46.3979,
0.2410,-0.1057,-0.0194,1.0272,0.0000,0.0000,0.0000,0.0341,0.0149,0.0044,-9.9841,2.4790,-46.3979,
0.2410,-0.1031,-0.0182,1.0208,0.0000,0.0000,0.0000,0.0341,0.0149,0.0044,-9.9841,2.4790,-46.3979,
0.2420,-0.1043,-0.0179,1.0133,0.0000,0.0000,0.0000,0.0341,0.0149,0.0044,-9.9841,2.4790,-46.3979,
0.2430,-0.1043,-0.0179,1.0133,0.0000,0.0000,0.0000,0.0341,0.0149,0.0044,-9.8211,2.4854,-46.3761,
0.2470,-0.1070,-0.0188,1.0109,0.0000,0.0000,0.0000,0.0341,0.0149,0.0044,-9.8211,2.4854,-46.3761,
0.2480,-0.1070,-0.0188,1.0109,0.0000,0.0000,0.0000,0.0210,0.0125,0.0010,-9.8211,2.4854,-46.3761,
0.2490,-0.1070,-0.0188,1.0109,-0.0607,-0.0079,0.0519,0.0210,0.0125,0.0010,-9.8211,2.4854,-46.3761,
0.3070,-0.1070,-0.0188,1.0109,0.0006,0.0264,-0.0305,0.0210,0.0125,0.0010,-9.8211,2.4854,-46.3761,
0.3080,-0.1070,-0.0188,1.0109,0.0006,0.0264,-0.0305,-0.0074,-0.0028,0.0010,-9.8211,2.4854,-46.3761,
0.3090,-0.1105,-0.0216,1.0117,0.0006,0.0264,-0.0305,-0.0074,-0.0028,0.0010,-9.8211,2.4854,-46.3761,
0.3100,-0.1118,-0.0218,1.0120,0.0006,0.0264,-0.0305,-0.0074,-0.0028,0.0010,-9.8211,2.4854,-46.3761,
0.3100,-0.1102,-0.0204,1.0135,0.0006,0.0264,-0.0305,-0.0074,-0.0028,0.0010,-9.8211,2.4854,-46.3761,
0.3210,-0.1102,-0.0204,1.0135,0.0006,0.0264,-0.0305,-0.0074,-0.0028,0.0010,-9.7973,2.4281,-46.3158,
0.3750,-0.1059,-0.0194,1.0168,0.0006,0.0264,-0.0305,-0.0074,-0.0028,0.0010,-9.7973,2.4281,-46.3158,
0.3760,-0.1059,-0.0194,1.0168,0.0006,0.0264,-0.0305,-0.0166,-0.0058,0.0007,-9.7973,2.4281,-46.3158,
0.3770,-0.1059,-0.0194,1.0168,0.0006,0.0264,-0.0305,-0.0050,0.0122,0.0004,-9.7973,2.4281,-46.3158,
0.3780,-0.1052,-0.0196,1.0188,0.0006,0.0264,-0.0305,-0.0050,0.0122,0.0004,-9.7973,2.4281,-46.3158,
0.3780,-0.1087,-0.0198,1.0200,0.0006,0.0264,-0.0305,-0.0050,0.0122,0.0004,-9.7973,2.4281,-46.3158,
0.3800,-0.1087,-0.0198,1.0200,0.0006,0.0264,-0.0305,-0.0050,0.0122,0.0004,-9.7079,2.4070,-46.2789,
0.3860,-0.1116,-0.0194,1.0197,0.0006,0.0264,-0.0305,-0.0050,0.0122,0.0004,-9.7079,2.4070,-46.2789,
0.3860,-0.1116,-0.0194,1.0197,-0.0334,0.0020,-0.0502,-0.0050,0.0122,0.0004,-9.7079,2.4070,-46.2789,
0.4410,-0.1116,-0.0194,1.0197,-0.0334,0.0020,-0.0502,-0.0050,0.0122,0.0004,-9.6396,2.3875,-46.2608,
0.4420,-0.1121,-0.0168,1.0190,-0.0334,0.0020,-0.0502,-0.0050,0.0122,0.0004,-9.6396,2.3875,-46.2608,
0.4430,-0.1121,-0.0168,1.0190,-0.0334,0.0020,-0.0502,0.0057,0.0149,0.0047,-9.6396,2.3875,-46.2608,
0.4430,-0.1108,-0.0168,1.0192,-0.0334,0.0020,-0.0502,0.0057,0.0149,0.0047,-9.6396,2.3875,-46.2608,
0.4440,-0.1091,-0.0179,1.0181,-0.0334,0.0020,-0.0502,0.0057,0.0149,0.0047,-9.6396,2.3875,-46.2608,
0.4450,-0.1091,-0.0179,1.0181,-0.0334,0.0020,-0.0502,0.0002,0.0043,0.0026,-9.6396,2.3875,-46.2608,
0.4450,-0.1091,-0.0179,1.0181,-0.0056,0.0125,0.0117,0.0002,0.0043,0.0026,-9.6396,2.3875,-46.2608,
0.5100,-0.1091,-0.0179,1.0181,-0.0056,0.0125,0.0117,-0.0010,0.0107,-0.0005,-9.6396,2.3875,-46.2608,
0.5110,-0.1080,-0.0195,1.0163,-0.0056,0.0125,0.0117,-0.0010,0.0107,-0.0005,-9.6396,2.3875,-46.2608,
0.5120,-0.1064,-0.0187,1.0130,-0.0056,0.0125,0.0117,-0.0010,0.0107,-0.0005,-9.6396,2.3875,-46.2608,
0.5120,-0.1057,-0.0176,1.0122,-0.0056,0.0125,0.0117,-0.0010,0.0107,-0.0005,-9.6396,2.3875,-46.2608,
0.5210,-0.1075,-0.0173,1.0137,-0.0056,0.0125,0.0117,-0.0010,0.0107,-0.0005,-9.6396,2.3875,-46.2608,
0.5220,-0.1075,-0.0173,1.0137,-0.0056,0.0125,0.0117,-0.0010,0.0107,-0.0005,-9.6056,2.3983,-46.2513,
0.5230,-0.1075,-0.0173,1.0137,-0.0056,0.0125,0.0117,-0.0062,0.0186,-0.0014,-9.6056,2.3983,-46.2513,
0.5240,-0.1075,-0.0173,1.0137,-0.0140,0.0293,0.0045,-0.0062,0.0186,-0.0014,-9.6056,2.3983,-46.2513,
0.5770,-0.1075,-0.0173,1.0137,-0.0140,0.0293,0.0045,-0.0050,0.0003,0.0004,-9.6056,2.3983,-46.2513,
0.5780,-0.1121,-0.0185,1.0155,-0.0140,0.0293,0.0045,-0.0050,0.0003,0.0004,-9.6056,2.3983,-46.2513,
0.5790,-0.1147,-0.0193,1.0170,-0.0140,0.0293,0.0045,-0.0050,0.0003,0.0004,-9.6056,2.3983,-46.2513,
0.5800,-0.1140,-0.0187,1.0172,-0.0140,0.0293,0.0045,-0.0050,0.0003,0.0004,-9.6056,2.3983,-46.2513,
0.5810,-0.1140,-0.0187,1.0172,-0.0140,0.0293,0.0045,-0.0050,0.0003,0.0004,-9.6274,2.3840,-46.2837,
0.5820,-0.1140,-0.0187,1.0172,0.0139,0.0220,-0.0408,-0.0050,0.0003,0.0004,-9.6274,2.3840,-46.2837,
0.6400,-0.1108,-0.0194,1.0186,0.0139,0.0220,-0.0408,-0.0050,0.0003,0.0004,-9.6274,2.3840,-46.2837,
0.6410,-0.1108,-0.0194,1.0186,0.0139,0.0220,-0.0408,-0.0050,0.0003,0.0004,-9.5542,2.3691,-46.2870,
0.6430,-0.1064,-0.0211,1.0203,0.0139,0.0220,-0.0408,-0.0050,0.0003,0.0004,-9.5542,2.3691,-46.2870,
0.6430,-0.1009,-0.0232,1.0196,0.0139,0.0220,-0.0408,-0.0050,0.0003,0.0004,-9.5542,2.3691,-46.2870,
0.6440,-0.1009,-0.0232,1.0196,0.0139,0.0220,-0.0408,-0.0022,-0.0156,0.0032,-9.5542,2.3691,-46.2870,
0.6440,-0.1009,-0.0232,1.0196,0.0139,0.0220,-0.0408,0.0103,0.0076,0.0047,-9.5542,2.3691,-46.2870,
0.6580,-0.1015,-0.0216,1.0163,0.0139,0.0220,-0.0408,0.0103,0.0076,0.0047,-9.5542,2.3691,-46.2870,
0.6580,-0.1015,-0.0216,1.0163,-0.0356,0.0055,-0.0055,0.0103,0.0076,0.0047,-9.5542,2.3691,-46.2870,
0.7100,-0.1084,-0.0202,1.0170,-0.0356,0.0055,-0.0055,0.0103,0.0076,0.0047,-9.5542,2.3691,-46.2870,
0.7110,-0.1193,-0.0216,1.0166,-0.0356,0.0055,-0.0055,0.0103,0.0076,0.0047,-9.5542,2.3691,-46.2870,
0.7120,-0.1193,-0.0216,1.0166,-0.0356,0.0055,-0.0055,0.0246,0.0485,-0.0014,-9.5542,2.3691,-46.2870,
0.7170,-0.1193,-0.0216,1.0166,-0.0356,0.0055,-0.0055,0.0066,-0.0443,-0.0044,-9.5542,2.3691,-46.2870,
0.7180,-0.1225,-0.0221,1.0087,-0.0356,0.0055,-0.0055,0.0066,-0.0443,-0.0044,-9.5542,2.3691,-46.2870,
0.7180,-0.1225,-0.0221,1.0087,0.0368,-0.0254,0.0119,0.0066,-0.0443,-0.0044,-9.5542,2.3691,-46.2870,
0.7200,-0.1225,-0.0221,1.0087,0.0368,-0.0254,0.0119,0.0066,-0.0443,-0.0044,-9.4962,2.3562,-46.2748,
0.7780,-0.1181,-0.0212,1.0053,0.0368,-0.0254,0.0119,0.0066,-0.0443,-0.0044,-9.4962,2.3562,-46.2748,
0.7790,-0.1181,-0.0212,1.0053,0.0368,-0.0254,0.0119,-0.0221,-0.0700,-0.0008,-9.4962,2.3562,-46.2748,
0.7800,-0.1115,-0.0179,1.0084,0.0368,-0.0254,0.0119,-0.0221,-0.0700,-0.0008,-9.4962,2.3562,-46.2748,
0.7820,-0.1011,-0.0155,1.0126,0.0368,-0.0254,0.0119,-0.0221,-0.0700,-0.0008,-9.4962,2.3562,-46.2748,
0.7820,-0.1011,-0.0155,1.0126,0.0368,-0.0254,0.0119,-0.0221,-0.0700,-0.0008,-9.5453,2.3284,-46.2989,
0.7940,-0.0965,-0.0145,1.0163,0.0368,-0.0254,0.0119,-0.0221,-0.0700,-0.0008,-9.5453,2.3284,-46.2989,
0.7950,-0.0965,-0.0145,1.0163,0.0368,-0.0254,0.0119,-0.0447,0.0211,-0.0014,-9.5453,2.3284,-46.2989,
0.7960,-0.0965,-0.0145,1.0163,-0.0921,0.0021,-0.0422,-0.0447,0.0211,-0.0014,-9.5453,2.3284,-46.2989,
0.8400,-0.0980,-0.0162,1.0202,-0.0921,0.0021,-0.0422,-0.0447,0.0211,-0.0014,-9.5453,2.3284,-46.2989,
0.8410,-0.0980,-0.0162,1.0202,-0.0921,0.0021,-0.0422,-0.0447,0.0211,-0.0014,-9.5913,2.3462,-46.3390,
0.8420,-0.1027,-0.0202,1.0235,-0.0921,0.0021,-0.0422,-0.0447,0.0211,-0.0014,-9.5913,2.3462,-46.3390,
0.8430,-0.1027,-0.0202,1.0235,-0.0921,0.0021,-0.0422,-0.0453,0.0546,0.0047,-9.5913,2.3462,-46.3390,
0.8540,-0.1027,-0.0202,1.0235,0.0557,0.0631,-0.0461,-0.0453,0.0546,0.0047,-9.5913,2.3462,-46.3390,
0.8550,-0.1103,-0.0213,1.0255,0.0557,0.0631,-0.0461,-0.0453,0.0546,0.0047,-9.5913,2.3462,-46.3390,
0.8750,-0.1170,-0.0239,1.0251,0.0557,0.0631,-0.0461,-0.0453,0.0546,0.0047,-9.5913,2.3462,-46.3390,
0.8760,-0.1170,-0.0239,1.0251,0.0557,0.0631,-0.0461,-0.0114,0.0446,0.0105,-9.5913,2.3462,-46.3390,
0.9110,-0.1182,-0.0256,1.0223,0.0557,0.0631,-0.0461,-0.0114,0.0446,0.0105,-9.5913,2.3462,-46.3390,
0.9210,-0.1182,-0.0256,1.0223,0.0557,0.0631,-0.0461,0.0219,0.0104,0.0065,-9.5913,2.3462,-46.3390,
0.9220,-0.1182,-0.0256,1.0223,0.0557,0.0631,-0.0461,0.0219,0.0104,0.0065,-9.6526,2.3812,-46.3454,
0.9230,-0.1174,-0.0255,1.0190,0.0557,0.0631,-0.0461,0.0219,0.0104,0.0065,-9.6526,2.3812,-46.3454,
0.9310,-0.1174,-0.0255,1.0190,0.0502,0.0157,0.0638,0.0219,0.0104,0.0065,-9.6526,2.3812,-46.3454,
0.9320,-0.1149,-0.0229,1.0172,0.0502,0.0157,0.0638,0.0219,0.0104,0.0065,-9.6526,2.3812,-46.3454,
0.9770,-0.1115,-0.0212,1.0159,0.0502,0.0157,0.0638,0.0219,0.0104,0.0065,-9.6526,2.3812,-46.3454,
0.9780,-0.1115,-0.0212,1.0159,0.0502,0.0157,0.0638,0.0198,-0.0147,0.0004,-9.6526,2.3812,-46.3454,
0.9780,-0.1081,-0.0206,1.0155,0.0502,0.0157,0.0638,0.0198,-0.0147,0.0004,-9.6526,2.3812,-46.3454,
0.9800,-0.1081,-0.0206,1.0155,0.0502,0.0157,0.0638,0.0198,-0.0147,0.0004,-9.7054,2.4039,-46.3661,
0.9900,-0.1081,-0.0206,1.0155,0.0502,0.0157,0.0638,0.0051,-0.0205,0.0014,-9.7054,2.4039,-46.3661,
0.9930,-0.1063,-0.0205,1.0141,0.0502,0.0157,0.0638,0.0051,-0.0205,0.0014,-9.7054,2.4039,-46.3661,
0.9930,-0.1063,-0.0205,1.0141,-0.0675,-0.0327,0.0275,0.0051,-0.0205,0.0014,-9.7054,2.4039,-46.3661,
1.0400,-0.1087,-0.0205,1.0133,-0.0675,-0.0327,0.0275,0.0051,-0.0205,0.0014,-9.7054,2.4039,-46.3661,
1.0400,-0.1116,-0.0205,1.0124,-0.0675,-0.0327,0.0275,0.0051,-0.0205,0.0014,-9.7054,2.4039,-46.3661,
1.0410,-0.1116,-0.0205,1.0124,-0.0675,-0.0327,0.0275,0.0051,-0.0205,0.0014,-9.7439,2.4146,-46.3837,
1.0420,-0.1116,-0.0205,1.0124,-0.0675,-0.0327,0.0275,-0.0056,-0.0052,0.0053,-9.7439,2.4146,-46.3837,
1.0690,-0.1112,-0.0207,1.0133,-0.0675,-0.0327,0.0275,-0.0056,-0.0052,0.0053,-9.7439,2.4146,-46.3837,
1.0700,-0.1112,-0.0207,1.0133,-0.0675,-0.0327,0.0275,-0.0074,-0.0074,0.0053,-9.7439,2.4146,-46.3837,
1.0710,-0.1113,-0.0191,1.0146,-0.0675,-0.0327,0.0275,-0.0074,-0.0074,0.0053,-9.7439,2.4146,-46.3837,
1.0720,-0.1113,-0.0191,1.0146,0.0106,0.0099,-0.0209,-0.0074,-0.0074,0.0053,-9.7439,2.4146,-46.3837,
1.1100,-0.1112,-0.0198,1.0151,0.0106,0.0099,-0.0209,-0.0074,-0.0074,0.0053,-9.7439,2.4146,-46.3837,
1.1110,-0.1081,-0.0210,1.0161,0.0106,0.0099,-0.0209,-0.0074,-0.0074,0.0053,-9.7439,2.4146,-46.3837,
1.1120,-0.1081,-0.0210,1.0161,0.0106,0.0099,-0.0209,0.0005,-0.0055,0.0023,-9.7439,2.4146,-46.3837,
1.1210,-0.1081,-0.0210,1.0161,0.0106,0.0099,-0.0209,0.0005,-0.0055,0.0023,-9.7469,2.4434,-46.3831,
1.1280,-0.1068,-0.0211,1.0164,0.0106,0.0099,-0.0209,0.0005,-0.0055,0.0023,-9.7469,2.4434,-46.3831,
1.1290,-0.1068,-0.0211,1.0164,-0.0081,0.0123,-0.0338,0.0005,-0.0055,0.0023,-9.7469,2.4434,-46.3831,
1.1770,-0.1059,-0.0205,1.0189,-0.0081,0.0123,-0.0338,0.0005,-0.0055,0.0023,-9.7469,2.4434,-46.3831,
1.1780,-0.1059,-0.0205,1.0189,-0.0081,0.0123,-0.0338,-0.0025,0.0287,0.0065,-9.7469,2.4434,-46.3831,
1.1790,-0.1075,-0.0211,1.0207,-0.0081,0.0123,-0.0338,-0.0025,0.0287,0.0065,-9.7469,2.4434,-46.3831,
1.1800,-0.1075,-0.0211,1.0207,-0.0081,0.0123,-0.0338,-0.0025,0.0287,0.0065,-9.8083,2.4551,-46.3720,
1.2060,-0.1105,-0.0221,1.0211,-0.0081,0.0123,-0.0338,-0.0025,0.0287,0.0065,-9.8083,2.4551,-46.3720,
1.2070,-0.1105,-0.0221,1.0211,-0.0081,0.0123,-0.0338,-0.0077,0.0284,0.0047,-9.8083,2.4551,-46.3720,
1.2070,-0.1131,-0.0223,1.0179,-0.0081,0.0123,-0.0338,-0.0077,0.0284,0.0047,-9.8083,2.4551,-46.3720,
1.2080,-0.1131,-0.0223,1.0179,0.0308,0.0119,-0.0017,-0.0077,0.0284,0.0047,-9.8083,2.4551,-46.3720,
1.2400,-0.1131,-0.0223,1.0179,0.0308,0.0119,-0.0017,-0.0050,-0.0058,0.0047,-9.8083,2.4551,-46.3720,
1.2410,-0.1138,-0.0211,1.0142,0.0308,0.0119,-0.0017,-0.0050,-0.0058,0.0047,-9.8083,2.4551,-46.3720,
1.2410,-0.1138,-0.0211,1.0142,0.0308,0.0119,-0.0017,-0.0050,-0.0058,0.0047,-9.8076,2.4704,-46.3994,
1.2440,-0.1114,-0.0200,1.0111,0.0308,0.0119,-0.0017,-0.0050,-0.0058,0.0047,-9.8076,2.4704,-46.3994,
1.2630,-0.1096,-0.0212,1.0119,0.0308,0.0119,-0.0017,-0.0050,-0.0058,0.0047,-9.8076,2.4704,-46.3994,
1.2640,-0.1096,-0.0212,1.0119,0.0308,0.0119,-0.0017,-0.0029,-0.0345,0.0038,-9.8076,2.4704,-46.3994,
1.2640,-0.1096,-0.0212,1.0119,-0.0019,0.0030,0.0264,-0.0029,-0.0345,0.0038,-9.8076,2.4704,-46.3994,
1.3100,-0.1091,-0.0234,1.0146,-0.0019,0.0030,0.0264,-0.0029,-0.0345,0.0038,-9.8076,2.4704,-46.3994,
1.3110,-0.1109,-0.0244,1.0157,-0.0019,0.0030,0.0264,-0.0029,-0.0345,0.0038,-9.8076,2.4704,-46.3994,
1.3120,-0.1109,-0.0244,1.0157,-0.0019,0.0030,0.0264,-0.0019,-0.0156,0.0059,-9.8076,2.4704,-46.3994,
1.3210,-0.1109,-0.0244,1.0157,-0.0019,0.0030,0.0264,-0.0019,-0.0156,0.0059,-9.7704,2.5072,-46.3698,
1.3410,-0.1109,-0.0244,1.0157,-0.0019,0.0030,0.0264,-0.0083,0.0027,0.0111,-9.7704,2.5072,-46.3698,
1.3420,-0.1130,-0.0221,1.0162,-0.0019,0.0030,0.0264,-0.0083,0.0027,0.0111,-9.7704,2.5072,-46.3698,
1.3420,-0.1129,-0.0190,1.0178,-0.0019,0.0030,0.0264,-0.0083,0.0027,0.0111,-9.7704,2.5072,-46.3698,
1.3430,-0.1129,-0.0190,1.0178,-0.0160,0.0109,-0.0380,-0.0083,0.0027,0.0111,-9.7704,2.5072,-46.3698,
1.3740,-0.1110,-0.0169,1.0192,-0.0160,0.0109,-0.0380,-0.0083,0.0027,0.0111,-9.7704,2.5072,-46.3698,
1.3810,-0.1069,-0.0185,1.0184,-0.0160,0.0109,-0.0380,-0.0083,0.0027,0.0111,-9.7704,2.5072,-46.3698,
1.3830,-0.1069,-0.0185,1.0184,-0.0160,0.0109,-0.0380,-0.0151,-0.0135,0.0102,-9.7704,2.5072,-46.3698,
1.3840,-0.1069,-0.0185,1.0184,-0.0160,0.0109,-0.0380,-0.0151,-0.0135,0.0102,-9.6957,2.5438,-46.3554,
1.4000,-0.1069,-0.0185,1.0184,-0.0249,0.0057,-0.0025,-0.0151,-0.0135,0.0102,-9.6957,2.5438,-46.3554,
1.4010,-0.1052,-0.0196,1.0172,-0.0249,0.0057,-0.0025,-0.0151,-0.0135,0.0102,-9.6957,2.5438,-46.3554,
1.4410,-0.1059,-0.0212,1.0161,-0.0249,0.0057,-0.0025,-0.0151,-0.0135,0.0102,-9.6957,2.5438,-46.3554,
1.4410,-0.1059,-0.0212,1.0161,-0.0249,0.0057,-0.0025,-0.0056,0.0030,0.0099,-9.6957,2.5438,-46.3554,
1.4420,-0.1063,-0.0240,1.0142,-0.0249,0.0057,-0.0025,-0.0056,0.0030,0.0099,-9.6957,2.5438,-46.3554,
1.4420,-0.1063,-0.0240,1.0142,-0.0249,0.0057,-0.0025,-0.0056,0.0030,0.0099,-9.6930,2.5531,-46.3838,
1.4790,-0.1063,-0.0240,1.0142,-0.0249,0.0057,-0.0025,-0.0022,0.0082,0.0163,-9.6930,2.5531,-46.3838,
1.4800,-0.1063,-0.0240,1.0142,0.0213,0.0376,0.0138,-0.0022,0.0082,0.0163,-9.6930,2.5531,-46.3838,
1.4810,-0.1085,-0.0238,1.0133,0.0213,0.0376,0.0138,-0.0022,0.0082,0.0163,-9.6930,2.5531,-46.3838,
1.4810,-0.1091,-0.0231,1.0158,0.0213,0.0376,0.0138,-0.0022,0.0082,0.0163,-9.6930,2.5531,-46.3838,
1.5100,-0.1091,-0.0231,1.0158,0.0213,0.0376,0.0138,-0.0038,0.0012,0.0090,-9.6930,2.5531,-46.3838,
1.5110,-0.1101,-0.0220,1.0201,0.0213,0.0376,0.0138,-0.0038,0.0012,0.0090,-9.6930,2.5531,-46.3838,
1.5200,-0.1077,-0.0246,1.0222,0.0213,0.0376,0.0138,-0.0038,0.0012,0.0090,-9.6930,2.5531,-46.3838,
1.5210,-0.1077,-0.0246,1.0222,0.0213,0.0376,0.0138,-0.0038,0.0012,0.0090,-9.7374,2.5626,-46.3788,
1.5370,-0.1077,-0.0246,1.0222,0.0213,0.0376,0.0138,0.0136,0.0058,0.0065,-9.7374,2.5626,-46.3788,
1.5380,-0.1041,-0.0259,1.0214,0.0213,0.0376,0.0138,0.0136,0.0058,0.0065,-9.7374,2.5626,-46.3788,
1.5390,-0.1041,-0.0259,1.0214,0.0208,-0.0166,-0.0185,0.0136,0.0058,0.0065,-9.7374,2.5626,-46.3788,
1.5770,-0.1008,-0.0249,1.0175,0.0208,-0.0166,-0.0185,0.0136,0.0058,0.0065,-9.7374,2.5626,-46.3788,
1.5780,-0.1008,-0.0249,1.0175,0.0208,-0.0166,-0.0185,0.0271,0.0183,0.0050,-9.7374,2.5626,-46.3788,
1.5780,-0.1063,-0.0228,1.0159,0.0208,-0.0166,-0.0185,0.0271,0.0183,0.0050,-9.7374,2.5626,-46.3788,
1.5800,-0.1063,-0.0228,1.0159,0.0208,-0.0166,-0.0185,0.0271,0.0183,0.0050,-9.7793,2.5641,-46.3812,
1.6150,-0.1063,-0.0228,1.0159,0.0071,-0.0297,0.0357,0.0271,0.0183,0.0050,-9.7793,2.5641,-46.3812,
1.6170,-0.1137,-0.0194,1.0085,0.0071,-0.0297,0.0357,0.0271,0.0183,0.0050,-9.7793,2.5641,-46.3812,
1.6170,-0.1156,-0.0189,1.0032,0.0071,-0.0297,0.0357,0.0271,0.0183,0.0050,-9.7793,2.5641,-46.3812,
1.6180,-0.1156,-0.0189,1.0032,0.0071,-0.0297,0.0357,-0.0013,-0.0776,0.0038,-9.7793,2.5641,-46.3812,
1.6420,-0.1142,-0.0185,1.0041,0.0071,-0.0297,0.0357,-0.0013,-0.0776,0.0038,-9.7793,2.5641,-46.3812,
1.6430,-0.1142,-0.0185,1.0041,0.0071,-0.0297,0.0357,-0.0013,-0.0776,0.0038,-9.7922,2.5712,-46.3664,
1.6740,-0.1142,-0.0185,1.0041,0.0071,-0.0297,0.0357,-0.0331,-0.0623,0.0032,-9.7922,2.5712,-46.3664,
1.6750,-0.1107,-0.0191,1.0134,0.0071,-0.0297,0.0357,-0.0331,-0.0623,0.0032,-9.7922,2.5712,-46.3664,
1.6760,-0.1014,-0.0213,1.0234,0.0071,-0.0297,0.0357,-0.0331,-0.0623,0.0032,-9.7922,2.5712,-46.3664,
1.6770,-0.1014,-0.0213,1.0234,-0.0379,0.0257,-0.0604,-0.0331,-0.0623,0.0032,-9.7922,2.5712,-46.3664,
1.7100,-0.0958,-0.0228,1.0286,-0.0379,0.0257,-0.0604,-0.0331,-0.0623,0.0032,-9.7922,2.5712,-46.3664,
1.7110,-0.0958,-0.0228,1.0286,-0.0379,0.0257,-0.0604,-0.0377,0.0510,0.0075,-9.7922,2.5712,-46.3664,
1.7200,-0.0996,-0.0217,1.0308,-0.0379,0.0257,-0.0604,-0.0377,0.0510,0.0075,-9.7922,2.5712,-46.3664,
1.7200,-0.0996,-0.0217,1.0308,-0.0379,0.0257,-0.0604,-0.0377,0.0510,0.0075,-9.7952,2.5980,-46.3763,
1.7520,-0.1042,-0.0211,1.0272,-0.0379,0.0257,-0.0604,-0.0377,0.0510,0.0075,-9.7952,2.5980,-46.3763,
1.7530,-0.1042,-0.0211,1.0272,-0.0379,0.0257,-0.0604,-0.0340,0.0427,0.0069,-9.7952,2.5980,-46.3763,
1.7530,-0.1088,-0.0211,1.0213,-0.0379,0.0257,-0.0604,-0.0340,0.0427,0.0069,-9.7952,2.5980,-46.3763,
1.7540,-0.1088,-0.0211,1.0213,0.0147,0.0476,-0.0046,-0.0340,0.0427,0.0069,-9.7952,2.5980,-46.3763,
1.7770,-0.1071,-0.0234,1.0170,0.0147,0.0476,-0.0046,-0.0340,0.0427,0.0069,-9.7952,2.5980,-46.3763,
1.7770,-0.1071,-0.0234,1.0170,0.0147,0.0476,-0.0046,-0.0123,-0.0101,0.0130,-9.7952,2.5980,-46.3763,
1.7800,-0.1071,-0.0234,1.0170,0.0147,0.0476,-0.0046,-0.0123,-0.0101,0.0130,-9.8369,2.6304,-46.3439,
1.8100,-0.1057,-0.0261,1.0150,0.0147,0.0476,-0.0046,-0.0123,-0.0101,0.0130,-9.8369,2.6304,-46.3439,
1.8110,-0.1065,-0.0272,1.0133,0.0147,0.0476,-0.0046,-0.0123,-0.0101,0.0130,-9.8369,2.6304,-46.3439,
1.8110,-0.1065,-0.0272,1.0133,0.0454,0.0253,0.0934,-0.0123,-0.0101,0.0130,-9.8369,2.6304,-46.3439,
1.8120,-0.1065,-0.0272,1.0133,0.0454,0.0253,0.0934,0.0069,-0.0003,0.0130,-9.8369,2.6304,-46.3439,
1.8410,-0.1064,-0.0288,1.0114,0.0454,0.0253,0.0934,0.0069,-0.0003,0.0130,-9.8369,2.6304,-46.3439,
1.8420,-0.1064,-0.0288,1.0114,0.0454,0.0253,0.0934,0.0069,-0.0003,0.0130,-9.9153,2.6495,-46.3449,
1.8760,-0.1075,-0.0307,1.0133,0.0454,0.0253,0.0934,0.0069,-0.0003,0.0130,-9.9153,2.6495,-46.3449,
1.8770,-0.1060,-0.0307,1.0192,0.0454,0.0253,0.0934,0.0069,-0.0003,0.0130,-9.9153,2.6495,-46.3449,
1.8770,-0.1060,-0.0307,1.0192,0.0454,0.0253,0.0934,0.0115,-0.0187,0.0047,-9.9153,2.6495,-46.3449,
1.8880,-0.1060,-0.0307,1.0192,0.0090,-0.0190,-0.0245,0.0115,-0.0187,0.0047,-9.9153,2.6495,-46.3449,
1.8890,-0.1035,-0.0290,1.0247,0.0090,-0.0190,-0.0245,0.0115,-0.0187,0.0047,-9.9153,2.6495,-46.3449,
1.8890,-0.1035,-0.0290,1.0247,0.0090,-0.0190,-0.0245,0.0002,0.0131,0.0059,-9.9153,2.6495,-46.3449,
1.9090,-0.1032,-0.0263,1.0272,0.0090,-0.0190,-0.0245,0.0002,0.0131,0.0059,-9.9153,2.6495,-46.3449,
1.9200,-0.1032,-0.0263,1.0272,0.0090,-0.0190,-0.0245,0.0002,0.0131,0.0059,-9.9714,2.6451,-46.3362,
1.9460,-0.1032,-0.0263,1.0272,0.0000,-0.0513,0.0066,0.0002,0.0131,0.0059,-9.9714,2.6451,-46.3362,
1.9480,-0.1032,-0.0263,1.0272,0.0000,-0.0513,0.0066,-0.0044,0.0137,0.0017,-9.9714,2.6451,-46.3362,
1.9480,-0.1093,-0.0253,1.0245,0.0000,-0.0513,0.0066,-0.0044,0.0137,0.0017,-9.9714,2.6451,-46.3362,
1.9490,-0.1132,-0.0228,1.0159,0.0000,-0.0513,0.0066,-0.0044,0.0137,0.0017,-9.9714,2.6451,-46.3362,
1.9770,-0.1132,-0.0228,1.0159,0.0000,-0.0513,0.0066,0.0026,-0.0721,0.0044,-9.9714,2.6451,-46.3362,
1.9780,-0.1093,-0.0231,1.0086,0.0000,-0.0513,0.0066,0.0026,-0.0721,0.0044,-9.9714,2.6451,-46.3362,
1.9800,-0.1093,-0.0231,1.0086,0.0000,-0.0513,0.0066,0.0026,-0.0721,0.0044,-9.9782,2.6618,-46.3319,
2.0260,-0.1093,-0.0231,1.0086,-0.0237,0.0050,0.0298,0.0026,-0.0721,0.0044,-9.9782,2.6618,-46.3319,
2.0260,-0.1093,-0.0231,1.0086,-0.0237,0.0050,0.0298,-0.0047,0.0070,0.0041,-9.9782,2.6618,-46.3319,
2.0270,-0.1020,-0.0250,1.0100,-0.0237,0.0050,0.0298,-0.0047,0.0070,0.0041,-9.9782,2.6618,-46.3319,
2.0280,-0.0993,-0.0262,1.0166,-0.0237,0.0050,0.0298,-0.0047,0.0070,0.0041,-9.9782,2.6618,-46.3319,
2.0280,-0.1010,-0.0249,1.0199,-0.0237,0.0050,0.0298,-0.0047,0.0070,0.0041,-9.9782,2.6618,-46.3319,
2.0410,-0.1010,-0.0249,1.0199,-0.0237,0.0050,0.0298,-0.0047,0.0070,0.0041,-9.9545,2.6765,-46.3272,
2.0440,-0.1027,-0.0249,1.0191,-0.0237,0.0050,0.0298,-0.0047,0.0070,0.0041,-9.9545,2.6765,-46.3272,
2.0450,-0.1027,-0.0249,1.0191,-0.0237,0.0050,0.0298,-0.0102,0.0320,0.0004,-9.9545,2.6765,-46.3272,
2.0830,-0.1060,-0.0255,1.0152,-0.0237,0.0050,0.0298,-0.0102,0.0320,0.0004,-9.9545,2.6765,-46.3272,
2.0840,-0.1060,-0.0255,1.0152,-0.0237,0.0050,0.0298,-0.0041,-0.0171,0.0029,-9.9545,2.6765,-46.3272,
2.0840,-0.1040,-0.0261,1.0137,-0.0237,0.0050,0.0298,-0.0041,-0.0171,0.0029,-9.9545,2.6765,-46.3272,
2.0850,-0.1040,-0.0261,1.0137,0.0384,0.0031,-0.0289,-0.0041,-0.0171,0.0029,-9.9545,2.6765,-46.3272,
2.1100,-0.1038,-0.0261,1.0147,0.0384,0.0031,-0.0289,-0.0041,-0.0171,0.0029,-9.9545,2.6765,-46.3272,
2.1210,-0.1038,-0.0261,1.0147,0.0384,0.0031,-0.0289,-0.0041,-0.0171,0.0029,-9.9496,2.7153,-46.2940,
2.1610,-0.1038,-0.0261,1.0147,0.0384,0.0031,-0.0289,0.0075,-0.0055,0.0038,-9.9496,2.7153,-46.2940,
2.1620,-0.1040,-0.0265,1.0170,0.0384,0.0031,-0.0289,0.0075,-0.0055,0.0038,-9.9496,2.7153,-46.2940,
2.1620,-0.1044,-0.0255,1.0170,0.0384,0.0031,-0.0289,0.0075,-0.0055,0.0038,-9.9496,2.7153,-46.2940,
2.1630,-0.1053,-0.0237,1.0159,0.0384,0.0031,-0.0289,0.0075,-0.0055,0.0038,-9.9496,2.7153,-46.2940,
2.1630,-0.1053,-0.0237,1.0159,0.0384,0.0031,-0.0289,0.0158,-0.0049,0.0020,-9.9496,2.7153,-46.2940,
2.1640,-0.1053,-0.0237,1.0159,0.0107,-0.0088,-0.0146,0.0158,-0.0049,0.0020,-9.9496,2.7153,-46.2940,
2.1820,-0.1055,-0.0228,1.0150,0.0107,-0.0088,-0.0146,0.0158,-0.0049,0.0020,-9.9496,2.7153,-46.2940,
2.1830,-0.1055,-0.0228,1.0150,0.0107,-0.0088,-0.0146,0.0158,-0.0049,0.0020,-9.9863,2.7619,-46.2774,
2.2210,-0.1049,-0.0235,1.0146,0.0107,-0.0088,-0.0146,0.0158,-0.0049,0.0020,-9.9863,2.7619,-46.2774,
2.2220,-0.1043,-0.0233,1.0141,0.0107,-0.0088,-0.0146,0.0158,-0.0049,0.0020,-9.9863,2.7619,-46.2774,
2.2220,-0.1043,-0.0233,1.0141,0.0107,-0.0088,-0.0146,0.0097,-0.0162,0.0004,-9.9863,2.7619,-46.2774,
2.2230,-0.1043,-0.0233,1.0141,-0.0041,-0.0099,-0.0064,0.0097,-0.0162,0.0004,-9.9863,2.7619,-46.2774,
2.2400,-0.1043,-0.0233,1.0141,-0.0041,-0.0099,-0.0064,-0.0074,-0.0171,-0.0005,-9.9863,2.7619,-46.2774,
2.2410,-0.1035,-0.0222,1.0155,-0.0041,-0.0099,-0.0064,-0.0074,-0.0171,-0.0005,-9.9863,2.7619,-46.2774,
2.2420,-0.1035,-0.0222,1.0155,-0.0041,-0.0099,-0.0064,-0.0074,-0.0171,-0.0005,-10.0345,2.7929,-46.2565,
2.2970,-0.1035,-0.0222,1.0155,-0.0041,-0.0099,-0.0064,-0.0050,-0.0101,-0.0014,-10.0345,2.7929,-46.2565,
2.2980,-0.1026,-0.0224,1.0146,-0.0041,-0.0099,-0.0064,-0.0050,-0.0101,-0.0014,-10.0345,2.7929,-46.2565,
2.2990,-0.1009,-0.0235,1.0151,-0.0041,-0.0099,-0.0064,-0.0050,-0.0101,-0.0014,-10.0345,2.7929,-46.2565,
2.2990,-0.1000,-0.0244,1.0166,-0.0041,-0.0099,-0.0064,-0.0050,-0.0101,-0.0014,-10.0345,2.7929,-46.2565,
2.2990,-0.1000,-0.0244,1.0166,-0.0090,0.0138,-0.0230,-0.0050,-0.0101,-0.0014,-10.0345,2.7929,-46.2565,
2.3200,-0.1007,-0.0257,1.0181,-0.0090,0.0138,-0.0230,-0.0050,-0.0101,-0.0014,-10.0345,2.7929,-46.2565,
2.3210,-0.1007,-0.0257,1.0181,-0.0090,0.0138,-0.0230,0.0103,0.0177,-0.0002,-10.0345,2.7929,-46.2565,
2.3210,-0.1007,-0.0257,1.0181,-0.0090,0.0138,-0.0230,0.0103,0.0177,-0.0002,-10.0909,2.7898,-46.2656,
2.3560,-0.1020,-0.0287,1.0202,-0.0090,0.0138,-0.0230,0.0103,0.0177,-0.0002,-10.0909,2.7898,-46.2656,
2.3570,-0.1020,-0.0287,1.0202,-0.0090,0.0138,-0.0230,0.0176,0.0152,0.0020,-10.0909,2.7898,-46.2656,
2.3570,-0.1022,-0.0276,1.0180,-0.0090,0.0138,-0.0230,0.0176,0.0152,0.0020,-10.0909,2.7898,-46.2656,
2.3580,-0.1022,-0.0276,1.0180,0.0303,0.0007,-0.0119,0.0176,0.0152,0.0020,-10.0909,2.7898,-46.2656,
2.3780,-0.1054,-0.0238,1.0145,0.0303,0.0007,-0.0119,0.0176,0.0152,0.0020,-10.0909,2.7898,-46.2656,
2.3810,-0.1054,-0.0238,1.0145,0.0303,0.0007,-0.0119,0.0176,0.0152,0.0020,-10.0510,2.7821,-46.2348,
2.4340,-0.1073,-0.0213,1.0142,0.0303,0.0007,-0.0119,0.0176,0.0152,0.0020,-10.0510,2.7821,-46.2348,
2.4360,-0.1073,-0.0213,1.0142,0.0303,0.0007,-0.0119,0.0045,-0.0238,-0.0008,-10.0510,2.7821,-46.2348,
2.4360,-0.1073,-0.0213,1.0142,0.0303,0.0007,-0.0119,-0.0096,0.0091,0.0035,-10.0510,2.7821,-46.2348,
2.4370,-0.1026,-0.0218,1.0180,0.0303,0.0007,-0.0119,-0.0096,0.0091,0.0035,-10.0510,2.7821,-46.2348,
2.4370,-0.0963,-0.0218,1.0253,0.0303,0.0007,-0.0119,-0.0096,0.0091,0.0035,-10.0510,2.7821,-46.2348,
2.4380,-0.0963,-0.0218,1.0253,0.0172,-0.0285,0.0128,-0.0096,0.0091,0.0035,-10.0510,2.7821,-46.2348,
2.4410,-0.0963,-0.0218,1.0253,0.0172,-0.0285,0.0128,-0.0096,0.0091,0.0035,-10.0458,2.7697,-46.2378,
2.4940,-0.0963,-0.0218,1.0253,0.0102,0.0167,0.0135,-0.0096,0.0091,0.0035,-10.0458,2.7697,-46.2378,
2.4950,-0.0955,-0.0190,1.0295,0.0102,0.0167,0.0135,-0.0096,0.0091,0.0035,-10.0458,2.7697,-46.2378,
2.4960,-0.1009,-0.0205,1.0260,0.0102,0.0167,0.0135,-0.0096,0.0091,0.0035,-10.0458,2.7697,-46.2378,
2.4960,-0.1077,-0.0222,1.0169,0.0102,0.0167,0.0135,-0.0096,0.0091,0.0035,-10.0458,2.7697,-46.2378,
2.4960,-0.1077,-0.0222,1.0169,0.0102,0.0167,0.0135,0.0023,0.0473,0.0007,-10.0458,2.7697,-46.2378,
2.5200,-0.1086,-0.0213,1.0051,0.0102,0.0167,0.0135,0.0023,0.0473,0.0007,-10.0458,2.7697,-46.2378,
2.5210,-0.1086,-0.0213,1.0051,0.0102,0.0167,0.0135,0.0054,-0.0700,-0.0020,-10.0458,2.7697,-46.2378,
2.5220,-0.1086,-0.0213,1.0051,0.0102,0.0167,0.0135,0.0054,-0.0700,-0.0020,-10.0343,2.7509,-46.2128,
2.5710,-0.1069,-0.0228,1.0028,0.0102,0.0167,0.0135,0.0054,-0.0700,-0.0020,-10.0343,2.7509,-46.2128,
2.5720,-0.1069,-0.0228,1.0028,0.0102,0.0167,0.0135,-0.0050,-0.0623,0.0010,-10.0343,2.7509,-46.2128,
2.5730,-0.1069,-0.0228,1.0028,-0.0168,0.0293,0.0373,-0.0050,-0.0623,0.0010,-10.0343,2.7509,-46.2128,
2.5730,-0.1051,-0.0242,1.0081,-0.0168,0.0293,0.0373,-0.0050,-0.0623,0.0010,-10.0343,2.7509,-46.2128,
2.5740,-0.0969,-0.0243,1.0159,-0.0168,0.0293,0.0373,-0.0050,-0.0623,0.0010,-10.0343,2.7509,-46.2128,
2.5800,-0.0969,-0.0243,1.0159,-0.0168,0.0293,0.0373,-0.0050,-0.0623,0.0010,-10.0304,2.7614,-46.2194,
2.6290,-0.0906,-0.0233,1.0258,-0.0168,0.0293,0.0373,-0.0050,-0.0623,0.0010,-10.0304,2.7614,-46.2194,
2.6300,-0.0953,-0.0226,1.0316,-0.0168,0.0293,0.0373,-0.0050,-0.0623,0.0010,-10.0304,2.7614,-46.2194,
2.6310,-0.1027,-0.0261,1.0306,-0.0168,0.0293,0.0373,-0.0050,-0.0623,0.0010,-10.0304,2.7614,-46.2194,
2.6310,-0.1027,-0.0261,1.0306,-0.0168,0.0293,0.0373,-0.0184,0.0415,-0.0011,-10.0304,2.7614,-46.2194,
2.6320,-0.1027,-0.0261,1.0306,-0.0168,0.0293,0.0373,-0.0215,0.0357,0.0001,-10.0304,2.7614,-46.2194,
2.6330,-0.1027,-0.0261,1.0306,0.0001,0.0142,-0.0823,-0.0215,0.0357,0.0001,-10.0304,2.7614,-46.2194,
2.6410,-0.1027,-0.0261,1.0306,0.0001,0.0142,-0.0823,-0.0215,0.0357,0.0001,-10.0314,2.7500,-46.2632,
2.7080,-0.1035,-0.0290,1.0288,0.0001,0.0142,-0.0823,-0.0215,0.0357,0.0001,-10.0314,2.7500,-46.2632,
2.7090,-0.1035,-0.0290,1.0288,0.0001,0.0142,-0.0823,-0.0050,0.0162,0.0038,-10.0314,2.7500,-46.2632,
2.7100,-0.1035,-0.0290,1.0288,0.0001,0.0142,-0.0823,0.0072,-0.0089,-0.0008,-10.0314,2.7500,-46.2632,
2.7100,-0.1018,-0.0257,1.0250,0.0001,0.0142,-0.0823,0.0072,-0.0089,-0.0008,-10.0314,2.7500,-46.2632,
2.7110,-0.1025,-0.0238,1.0203,0.0001,0.0142,-0.0823,0.0072,-0.0089,-0.0008,-10.0314,2.7500,-46.2632,
2.7120,-0.1036,-0.0234,1.0145,0.0001,0.0142,-0.0823,0.0072,-0.0089,-0.0008,-10.0314,2.7500,-46.2632,
2.7120,-0.1036,-0.0234,1.0145,0.0563,-0.0008,0.1118,0.0072,-0.0089,-0.0008,-10.0314,2.7500,-46.2632,
2.7210,-0.1036,-0.0234,1.0145,0.0563,-0.0008,0.1118,0.0072,-0.0089,-0.0008,-10.0505,2.7320,-46.2846,
2.7670,-0.1016,-0.0253,1.0112,0.0563,-0.0008,0.1118,0.0072,-0.0089,-0.0008,-10.0505,2.7320,-46.2846,
2.7680,-0.1003,-0.0257,1.0102,0.0563,-0.0008,0.1118,0.0072,-0.0089,-0.0008,-10.0505,2.7320,-46.2846,
2.7680,-0.1016,-0.0213,1.0122,0.0563,-0.0008,0.1118,0.0072,-0.0089,-0.0008,-10.0505,2.7320,-46.2846,
2.7690,-0.1016,-0.0213,1.0122,-0.0052,-0.0010,0.0270,0.0072,-0.0089,-0.0008,-10.0505,2.7320,-46.2846,
2.7700,-0.1016,-0.0213,1.0122,-0.0052,-0.0010,0.0270,0.0033,-0.0211,0.0020,-10.0505,2.7320,-46.2846,
2.7810,-0.1016,-0.0213,1.0122,-0.0052,-0.0010,0.0270,0.0033,-0.0211,0.0020,-10.0661,2.7185,-46.2890,
2.8410,-0.1016,-0.0213,1.0122,-0.0052,-0.0010,0.0270,-0.0108,-0.0089,-0.0002,-10.0661,2.7185,-46.2890,
2.8420,-0.1016,-0.0213,1.0122,-0.0052,-0.0010,0.0270,-0.0108,-0.0089,-0.0002,-10.0572,2.7324,-46.2867,
2.8440,-0.1029,-0.0209,1.0150,-0.0052,-0.0010,0.0270,-0.0108,-0.0089,-0.0002,-10.0572,2.7324,-46.2867,
2.8450,-0.0982,-0.0226,1.0158,-0.0052,-0.0010,0.0270,-0.0108,-0.0089,-0.0002,-10.0572,2.7324,-46.2867,
2.8450,-0.0981,-0.0263,1.0163,-0.0052,-0.0010,0.0270,-0.0108,-0.0089,-0.0002,-10.0572,2.7324,-46.2867,
2.8460,-0.0981,-0.0263,1.0163,-0.0052,-0.0010,0.0270,-0.0047,0.0024,0.0007,-10.0572,2.7324,-46.2867,
2.8460,-0.0981,-0.0263,1.0163,0.0092,0.0120,-0.0575,-0.0047,0.0024,0.0007,-10.0572,2.7324,-46.2867,
2.8470,-0.1036,-0.0287,1.0196,0.0092,0.0120,-0.0575,-0.0047,0.0024,0.0007,-10.0572,2.7324,-46.2867,
2.8760,-0.1047,-0.0284,1.0210,0.0092,0.0120,-0.0575,-0.0047,0.0024,0.0007,-10.0572,2.7324,-46.2867,
2.8780,-0.1047,-0.0284,1.0210,0.0092,0.0120,-0.0575,0.0063,0.0253,0.0044,-10.0572,2.7324,-46.2867,
2.9020,-0.1041,-0.0253,1.0194,0.0092,0.0120,-0.0575,0.0063,0.0253,0.0044,-10.0572,2.7324,-46.2867,
2.9030,-0.1041,-0.0253,1.0194,0.0092,0.0120,-0.0575,0.0066,-0.0000,0.0007,-10.0572,2.7324,-46.2867,
2.9030,-0.1041,-0.0253,1.0194,0.0210,-0.0057,-0.0056,0.0066,-0.0000,0.0007,-10.0572,2.7324,-46.2867,
2.9040,-0.1053,-0.0216,1.0174,0.0210,-0.0057,-0.0056,0.0066,-0.0000,0.0007,-10.0572,2.7324,-46.2867,
2.9210,-0.1053,-0.0216,1.0174,0.0210,-0.0057,-0.0056,0.0066,-0.0000,0.0007,-10.0790,2.7475,-46.3259,
2.9770,-0.1003,-0.0228,1.0122,0.0210,-0.0057,-0.0056,0.0066,-0.0000,0.0007,-10.0790,2.7475,-46.3259,
2.9780,-0.0964,-0.0226,1.0101,0.0210,-0.0057,-0.0056,0.0066,-0.0000,0.0007,-10.0790,2.7475,-46.3259,
2.9780,-0.0943,-0.0237,1.0089,0.0210,-0.0057,-0.0056,0.0066,-0.0000,0.0007,-10.0790,2.7475,-46.3259,
2.9790,-0.0943,-0.0237,1.0089,0.0210,-0.0057,-0.0056,-0.0035,-0.0410,-0.0029,-10.0790,2.7475,-46.3259,
2.9820,-0.0959,-0.0263,1.0130,0.0210,-0.0057,-0.0056,-0.0035,-0.0410,-0.0029,-10.0790,2.7475,-46.3259,
2.9820,-0.0959,-0.0263,1.0130,0.0210,-0.0057,-0.0056,-0.0007,0.0159,0.0014,-10.0790,2.7475,-46.3259,
2.9830,-0.0959,-0.0263,1.0130,0.0210,-0.0057,-0.0056,-0.0007,0.0159,0.0014,-10.1096,2.7764,-46.2910,
2.9840,-0.0959,-0.0263,1.0130,-0.0215,-0.0000,0.0076,-0.0007,0.0159,0.0014,-10.1096,2.7764,-46.2910,
3.0400,-0.1002,-0.0290,1.0147,-0.0215,-0.0000,0.0076,-0.0007,0.0159,0.0014,-10.1096,2.7764,-46.2910,
3.0410,-0.1002,-0.0290,1.0147,-0.0215,-0.0000,0.0076,0.0109,0.0314,0.0023,-10.1096,2.7764,-46.2910,
3.0410,-0.1003,-0.0295,1.0152,-0.0215,-0.0000,0.0076,0.0109,0.0314,0.0023,-10.1096,2.7764,-46.2910,
3.0420,-0.1003,-0.0295,1.0152,0.0614,0.0002,-0.0602,0.0109,0.0314,0.0023,-10.1096,2.7764,-46.2910,
3.0430,-0.1019,-0.0255,1.0168,0.0614,0.0002,-0.0602,0.0109,0.0314,0.0023,-10.1096,2.7764,-46.2910,
3.0430,-0.1019,-0.0255,1.0168,0.0614,0.0002,-0.0602,0.0109,0.0314,0.0023,-10.1750,2.7854,-46.2831,
3.1100,-0.1032,-0.0228,1.0178,0.0614,0.0002,-0.0602,0.0109,0.0314,0.0023,-10.1750,2.7854,-46.2831,
3.1110,-0.1027,-0.0211,1.0208,0.0614,0.0002,-0.0602,0.0109,0.0314,0.0023,-10.1750,2.7854,-46.2831,
3.1120,-0.1020,-0.0222,1.0255,0.0614,0.0002,-0.0602,0.0109,0.0314,0.0023,-10.1750,2.7854,-46.2831,
3.1120,-0.1020,-0.0222,1.0255,0.0614,0.0002,-0.0602,0.0051,-0.0074,-0.0029,-10.1750,2.7854,-46.2831,
3.1130,-0.1020,-0.0222,1.0255,0.0614,0.0002,-0.0602,-0.0108,-0.0077,-0.0017,-10.1750,2.7854,-46.2831,
3.1170,-0.1018,-0.0229,1.0258,0.0614,0.0002,-0.0602,-0.0108,-0.0077,-0.0017,-10.1750,2.7854,-46.2831,
3.1180,-0.1018,-0.0229,1.0258,0.0073,-0.0218,-0.0090,-0.0108,-0.0077,-0.0017,-10.1750,2.7854,-46.2831,
3.1200,-0.1018,-0.0229,1.0258,0.0073,-0.0218,-0.0090,-0.0108,-0.0077,-0.0017,-10.2205,2.7967,-46.2733,
3.1760,-0.1013,-0.0240,1.0257,0.0073,-0.0218,-0.0090,-0.0108,-0.0077,-0.0017,-10.2205,2.7967,-46.2733,
3.1770,-0.0989,-0.0255,1.0212,0.0073,-0.0218,-0.0090,-0.0108,-0.0077,-0.0017,-10.2205,2.7967,-46.2733,
3.1770,-0.0982,-0.0235,1.0159,0.0073,-0.0218,-0.0090,-0.0108,-0.0077,-0.0017,-10.2205,2.7967,-46.2733,
3.1780,-0.0982,-0.0235,1.0159,-0.0018,0.0277,0.0573,-0.0108,-0.0077,-0.0017,-10.2205,2.7967,-46.2733,
3.1790,-0.0982,-0.0235,1.0159,-0.0018,0.0277,0.0573,-0.0160,0.0033,-0.0002,-10.2205,2.7967,-46.2733,
3.1790,-0.0982,-0.0235,1.0159,-0.0018,0.0277,0.0573,0.0005,0.0039,-0.0005,-10.2205,2.7967,-46.2733,
3.1800,-0.0982,-0.0235,1.0159,-0.0018,0.0277,0.0573,0.0005,0.0039,-0.0005,-10.2400,2.7972,-46.2623,
3.2420,-0.0982,-0.0235,1.0159,-0.0018,0.0277,0.0573,0.0152,0.0049,-0.0002,-10.2400,2.7972,-46.2623,
3.2430,-0.0982,-0.0235,1.0159,-0.0018,0.0277,0.0573,0.0152,0.0049,-0.0002,-10.2188,2.7864,-46.2105,
3.2450,-0.0987,-0.0221,1.0129,-0.0018,0.0277,0.0573,0.0152,0.0049,-0.0002,-10.2188,2.7864,-46.2105,
3.2460,-0.0988,-0.0213,1.0104,-0.0018,0.0277,0.0573,0.0152,0.0049,-0.0002,-10.2188,2.7864,-46.2105,
3.2470,-0.0999,-0.0242,1.0098,-0.0018,0.0277,0.0573,0.0152,0.0049,-0.0002,-10.2188,2.7864,-46.2105,
3.2530,-0.0999,-0.0242,1.0098,-0.0018,0.0277,0.0573,0.0112,-0.0061,-0.0014,-10.2188,2.7864,-46.2105,
3.2540,-0.0980,-0.0253,1.0108,-0.0018,0.0277,0.0573,0.0112,-0.0061,-0.0014,-10.2188,2.7864,-46.2105,
3.2560,-0.0980,-0.0253,1.0108,0.0244,-0.0007,0.0221,0.0112,-0.0061,-0.0014,-10.2188,2.7864,-46.2105,
3.3100,-0.0980,-0.0253,1.0108,0.0244,-0.0007,0.0221,0.0020,-0.0150,-0.0014,-10.2188,2.7864,-46.2105,
3.3120,-0.1005,-0.0261,1.0115,0.0244,-0.0007,0.0221,0.0020,-0.0150,-0.0014,-10.2188,2.7864,-46.2105,
3.3130,-0.1030,-0.0251,1.0133,0.0244,-0.0007,0.0221,0.0020,-0.0150,-0.0014,-10.2188,2.7864,-46.2105,
3.3130,-0.1062,-0.0250,1.0173,0.0244,-0.0007,0.0221,0.0020,-0.0150,-0.0014,-10.2188,2.7864,-46.2105,
3.3140,-0.1062,-0.0250,1.0173,0.0177,0.0093,-0.0629,0.0020,-0.0150,-0.0014,-10.2188,2.7864,-46.2105,
3.3200,-0.1062,-0.0250,1.0173,0.0177,0.0093,-0.0629,0.0020,-0.0150,-0.0014,-10.1993,2.7870,-46.2154,
3.3760,-0.1010,-0.0256,1.0253,0.0177,0.0093,-0.0629,0.0020,-0.0150,-0.0014,-10.1993,2.7870,-46.2154,
3.3770,-0.1010,-0.0256,1.0253,0.0177,0.0093,-0.0629,-0.0166,0.0036,0.0001,-10.1993,2.7870,-46.2154,
3.3770,-0.1010,-0.0256,1.0253,0.0177,0.0093,-0.0629,-0.0105,0.0476,0.0035,-10.1993,2.7870,-46.2154,
3.3780,-0.0956,-0.0229,1.0333,0.0177,0.0093,-0.0629,-0.0105,0.0476,0.0035,-10.1993,2.7870,-46.2154,
3.3780,-0.0953,-0.0209,1.0349,0.0177,0.0093,-0.0629,-0.0105,0.0476,0.0035,-10.1993,2.7870,-46.2154,
3.3800,-0.0953,-0.0209,1.0349,0.0177,0.0093,-0.0629,-0.0105,0.0476,0.0035,-10.2232,2.7711,-46.2202,
3.3910,-0.0953,-0.0209,1.0349,0.0023,-0.0065,-0.0110,-0.0105,0.0476,0.0035,-10.2232,2.7711,-46.2202,
3.3920,-0.1018,-0.0235,1.0306,0.0023,-0.0065,-0.0110,-0.0105,0.0476,0.0035,-10.2232,2.7711,-46.2202,
3.4420,-0.1018,-0.0235,1.0306,0.0023,-0.0065,-0.0110,0.0173,-0.0074,-0.0057,-10.2232,2.7711,-46.2202,
3.4430,-0.1071,-0.0279,1.0194,0.0023,-0.0065,-0.0110,0.0173,-0.0074,-0.0057,-10.2232,2.7711,-46.2202,
3.4440,-0.1060,-0.0257,1.0082,0.0023,-0.0065,-0.0110,0.0173,-0.0074,-0.0057,-10.2232,2.7711,-46.2202,
3.4450,-0.1060,-0.0257,1.0082,0.0023,-0.0065,-0.0110,0.0173,-0.0074,-0.0057,-10.2699,2.7712,-46.2082,
3.4490,-0.1060,-0.0257,1.0082,0.0023,-0.0065,-0.0110,0.0011,-0.0550,-0.0005,-10.2699,2.7712,-46.2082,
3.4500,-0.1060,-0.0257,1.0082,0.0227,0.0135,0.1322,0.0011,-0.0550,-0.0005,-10.2699,2.7712,-46.2082,
3.4510,-0.1033,-0.0224,1.0050,0.0227,0.0135,0.1322,0.0011,-0.0550,-0.0005,-10.2699,2.7712,-46.2082,
3.5120,-0.1033,-0.0224,1.0050,0.0227,0.0135,0.1322,-0.0355,0.0207,-0.0020,-10.2699,2.7712,-46.2082,
3.5130,-0.1020,-0.0206,1.0136,0.0227,0.0135,0.1322,-0.0355,0.0207,-0.0020,-10.2699,2.7712,-46.2082,
3.5140,-0.0931,-0.0224,1.0213,0.0227,0.0135,0.1322,-0.0355,0.0207,-0.0020,-10.2699,2.7712,-46.2082,
3.5140,-0.0906,-0.0217,1.0233,0.0227,0.0135,0.1322,-0.0355,0.0207,-0.0020,-10.2699,2.7712,-46.2082,
3.5220,-0.0906,-0.0217,1.0233,0.0227,0.0135,0.1322,-0.0355,0.0207,-0.0020,-10.2475,2.7845,-46.2524,
3.5280,-0.0906,-0.0217,1.0233,-0.0339,0.0187,-0.0651,-0.0355,0.0207,-0.0020,-10.2475,2.7845,-46.2524,
3.5300,-0.0958,-0.0216,1.0179,-0.0339,0.0187,-0.0651,-0.0355,0.0207,-0.0020,-10.2475,2.7845,-46.2524,
3.5310,-0.0958,-0.0216,1.0179,-0.0339,0.0187,-0.0651,-0.0337,0.0088,-0.0017,-10.2475,2.7845,-46.2524,
3.5770,-0.0958,-0.0216,1.0179,-0.0339,0.0187,-0.0651,-0.0096,-0.0232,0.0069,-10.2475,2.7845,-46.2524,
3.5780,-0.0988,-0.0288,1.0155,-0.0339,0.0187,-0.0651,-0.0096,-0.0232,0.0069,-10.2475,2.7845,-46.2524,
3.5790,-0.1016,-0.0317,1.0151,-0.0339,0.0187,-0.0651,-0.0096,-0.0232,0.0069,-10.2475,2.7845,-46.2524,
3.5810,-0.1016,-0.0317,1.0151,-0.0339,0.0187,-0.0651,-0.0096,-0.0232,0.0069,-10.2473,2.7996,-46.2352,
3.5860,-0.1016,-0.0317,1.0151,0.0617,0.0432,0.0223,-0.0096,-0.0232,0.0069,-10.2473,2.7996,-46.2352,
3.5870,-0.1010,-0.0318,1.0159,0.0617,0.0432,0.0223,-0.0096,-0.0232,0.0069,-10.2473,2.7996,-46.2352,
3.6420,-0.1010,-0.0318,1.0159,0.0617,0.0432,0.0223,0.0109,0.0177,0.0053,-10.2473,2.7996,-46.2352,
3.6440,-0.1024,-0.0300,1.0190,0.0617,0.0432,0.0223,0.0109,0.0177,0.0053,-10.2473,2.7996,-46.2352,
3.6450,-0.1019,-0.0277,1.0178,0.0617,0.0432,0.0223,0.0109,0.0177,0.0053,-10.2473,2.7996,-46.2352,
3.6460,-0.1019,-0.0277,1.0178,0.0617,0.0432,0.0223,0.0109,0.0177,0.0053,-10.2756,2.8008,-46.2349,
3.6650,-0.1019,-0.0277,1.0178,0.0617,0.0432,0.0223,0.0176,-0.0135,-0.0014,-10.2756,2.8008,-46.2349,
3.6660,-0.1031,-0.0279,1.0159,0.0617,0.0432,0.0223,0.0176,-0.0135,-0.0014,-10.2756,2.8008,-46.2349,
3.6670,-0.1031,-0.0279,1.0159,-0.0116,-0.0511,-0.0182,0.0176,-0.0135,-0.0014,-10.2756,2.8008,-46.2349,
3.6670,-0.1048,-0.0279,1.0104,-0.0116,-0.0511,-0.0182,0.0176,-0.0135,-0.0014,-10.2756,2.8008,-46.2349,
3.7100,-0.1048,-0.0279,1.0104,-0.0116,-0.0511,-0.0182,0.0124,-0.0358,-0.0011,-10.2756,2.8008,-46.2349,
3.7110,-0.1027,-0.0266,1.0093,-0.0116,-0.0511,-0.0182,0.0124,-0.0358,-0.0011,-10.2756,2.8008,-46.2349,
3.7110,-0.0969,-0.0243,1.0115,-0.0116,-0.0511,-0.0182,0.0124,-0.0358,-0.0011,-10.2756,2.8008,-46.2349,
3.7210,-0.0969,-0.0243,1.0115,-0.0116,-0.0511,-0.0182,0.0124,-0.0358,-0.0011,-10.3123,2.8081,-46.2098,
3.7220,-0.0932,-0.0218,1.0161,-0.0116,-0.0511,-0.0182,0.0124,-0.0358,-0.0011,-10.3123,2.8081,-46.2098,
3.7220,-0.0932,-0.0218,1.0161,-0.0116,-0.0511,-0.0182,-0.0059,0.0183,0.0001,-10.3123,2.8081,-46.2098,
3.7220,-0.0932,-0.0218,1.0161,-0.0270,-0.0194,-0.0202,-0.0059,0.0183,0.0001,-10.3123,2.8081,-46.2098,
3.7790,-0.0932,-0.0218,1.0161,-0.0270,-0.0194,-0.0202,-0.0062,0.0391,0.0007,-10.3123,2.8081,-46.2098,
3.7810,-0.0975,-0.0232,1.0206,-0.0270,-0.0194,-0.0202,-0.0062,0.0391,0.0007,-10.3123,2.8081,-46.2098,
3.7820,-0.1027,-0.0271,1.0224,-0.0270,-0.0194,-0.0202,-0.0062,0.0391,0.0007,-10.3123,2.8081,-46.2098,
3.7830,-0.1020,-0.0265,1.0201,-0.0270,-0.0194,-0.0202,-0.0062,0.0391,0.0007,-10.3123,2.8081,-46.2098,
3.7840,-0.1020,-0.0265,1.0201,-0.0270,-0.0194,-0.0202,-0.0062,0.0391,0.0007,-10.3437,2.8250,-46.2395,
3.8020,-0.1014,-0.0242,1.0192,-0.0270,-0.0194,-0.0202,-0.0062,0.0391,0.0007,-10.3437,2.8250,-46.2395,
3.8030,-0.1014,-0.0242,1.0192,-0.0270,-0.0194,-0.0202,0.0039,0.0140,0.0004,-10.3437,2.8250,-46.2395,
3.8050,-0.1014,-0.0242,1.0192,0.0419,0.0176,-0.0347,0.0039,0.0140,0.0004,-10.3437,2.8250,-46.2395,
3.8400,-0.0998,-0.0237,1.0236,0.0419,0.0176,-0.0347,0.0039,0.0140,0.0004,-10.3437,2.8250,-46.2395,
3.8420,-0.0967,-0.0233,1.0247,0.0419,0.0176,-0.0347,0.0039,0.0140,0.0004,-10.3437,2.8250,-46.2395,
3.8420,-0.0967,-0.0233,1.0247,0.0419,0.0176,-0.0347,-0.0035,-0.0052,-0.0029,-10.3437,2.8250,-46.2395,
3.8430,-0.0967,-0.0233,1.0247,0.0419,0.0176,-0.0347,-0.0035,-0.0052,-0.0029,-10.3632,2.8312,-46.2178,
3.8610,-0.0967,-0.0233,1.0247,-0.0044,0.0019,0.0338,-0.0035,-0.0052,-0.0029,-10.3632,2.8312,-46.2178,
3.8620,-0.0945,-0.0250,1.0232,-0.0044,0.0019,0.0338,-0.0035,-0.0052,-0.0029,-10.3632,2.8312,-46.2178,
3.9100,-0.0947,-0.0261,1.0205,-0.0044,0.0019,0.0338,-0.0035,-0.0052,-0.0029,-10.3632,2.8312,-46.2178,
3.9120,-0.0947,-0.0261,1.0205,-0.0044,0.0019,0.0338,0.0045,-0.0022,0.0001,-10.3632,2.8312,-46.2178,
3.9120,-0.0997,-0.0260,1.0174,-0.0044,0.0019,0.0338,0.0045,-0.0022,0.0001,-10.3632,2.8312,-46.2178,
3.9220,-0.1014,-0.0273,1.0125,-0.0044,0.0019,0.0338,0.0045,-0.0022,0.0001,-10.3632,2.8312,-46.2178,
3.9230,-0.1014,-0.0273,1.0125,-0.0044,0.0019,0.0338,0.0045,-0.0022,0.0001,-10.3616,2.8353,-46.2006,
3.9240,-0.1014,-0.0273,1.0125,-0.0044,0.0019,0.0338,0.0109,-0.0006,0.0014,-10.3616,2.8353,-46.2006,
3.9380,-0.1014,-0.0273,1.0125,0.0376,0.0075,0.0524,0.0109,-0.0006,0.0014,-10.3616,2.8353,-46.2006,
3.9400,-0.1000,-0.0266,1.0096,0.0376,0.0075,0.0524,0.0109,-0.0006,0.0014,-10.3616,2.8353,-46.2006,
3.9770,-0.0978,-0.0255,1.0079,0.0376,0.0075,0.0524,0.0109,-0.0006,0.0014,-10.3616,2.8353,-46.2006,
3.9780,-0.0985,-0.0248,1.0109,0.0376,0.0075,0.0524,0.0109,-0.0006,0.0014,-10.3616,2.8353,-46.2006,
3.9790,-0.0985,-0.0248,1.0109,0.0376,0.0075,0.0524,0.0042,-0.0196,-0.0017,-10.3616,2.8353,-46.2006,
3.9800,-0.0985,-0.0248,1.0109,0.0376,0.0075,0.0524,0.0042,-0.0196,-0.0017,-10.3609,2.8360,-46.2047,
3.9970,-0.0985,-0.0248,1.0109,0.0376,0.0075,0.0524,-0.0025,-0.0055,-0.0005,-10.3609,2.8360,-46.2047,
3.9980,-0.0985,-0.0248,1.0109,0.0008,-0.0115,-0.0341,-0.0025,-0.0055,-0.0005,-10.3609,2.8360,-46.2047,
3.9990,-0.1020,-0.0254,1.0147,0.0008,-0.0115,-0.0341,-0.0025,-0.0055,-0.0005,-10.3609,2.8360,-46.2047,
4.0410,-0.1022,-0.0254,1.0189,0.0008,-0.0115,-0.0341,-0.0025,-0.0055,-0.0005,-10.3609,2.8360,-46.2047,
4.0420,-0.1022,-0.0254,1.0189,0.0008,-0.0115,-0.0341,-0.0093,0.0006,-0.0005,-10.3609,2.8360,-46.2047,
4.0430,-0.1022,-0.0254,1.0189,0.0008,-0.0115,-0.0341,-0.0093,0.0006,-0.0005,-10.4334,2.8131,-46.1674,
4.0440,-0.1032,-0.0253,1.0208,0.0008,-0.0115,-0.0341,-0.0093,0.0006,-0.0005,-10.4334,2.8131,-46.1674,
4.0750,-0.1020,-0.0250,1.0213,0.0008,-0.0115,-0.0341,-0.0093,0.0006,-0.0005,-10.4334,2.8131,-46.1674,
4.0770,-0.1020,-0.0250,1.0213,0.0008,-0.0115,-0.0341,-0.0114,-0.0019,-0.0026,-10.4334,2.8131,-46.1674,
4.0770,-0.0997,-0.0251,1.0206,0.0008,-0.0115,-0.0341,-0.0114,-0.0019,-0.0026,-10.4334,2.8131,-46.1674,
4.0770,-0.0997,-0.0251,1.0206,-0.0004,0.0077,-0.0478,-0.0114,-0.0019,-0.0026,-10.4334,2.8131,-46.1674,
4.1110,-0.0978,-0.0254,1.0184,-0.0004,0.0077,-0.0478,-0.0114,-0.0019,-0.0026,-10.4334,2.8131,-46.1674,
4.1220,-0.0978,-0.0254,1.0184,-0.0004,0.0077,-0.0478,-0.0004,0.0024,-0.0005,-10.4334,2.8131,-46.1674,
4.1230,-0.0961,-0.0253,1.0186,-0.0004,0.0077,-0.0478,-0.0004,0.0024,-0.0005,-10.4334,2.8131,-46.1674,
4.1230,-0.0961,-0.0253,1.0186,-0.0004,0.0077,-0.0478,-0.0004,0.0024,-0.0005,-10.4666,2.8088,-46.1985,
4.1330,-0.0961,-0.0253,1.0186,-0.0055,0.0059,0.0334,-0.0004,0.0024,-0.0005,-10.4666,2.8088,-46.1985,
4.1350,-0.0948,-0.0240,1.0192,-0.0055,0.0059,0.0334,-0.0004,0.0024,-0.0005,-10.4666,2.8088,-46.1985,
4.1790,-0.0948,-0.0240,1.0192,-0.0055,0.0059,0.0334,0.0060,0.0415,0.0010,-10.4666,2.8088,-46.1985,
4.1810,-0.0954,-0.0250,1.0213,-0.0055,0.0059,0.0334,0.0060,0.0415,0.0010,-10.4666,2.8088,-46.1985,
4.1810,-0.0975,-0.0254,1.0197,-0.0055,0.0059,0.0334,0.0060,0.0415,0.0010,-10.4666,2.8088,-46.1985,
4.1820,-0.0975,-0.0254,1.0197,-0.0055,0.0059,0.0334,0.0060,0.0415,0.0010,-10.4732,2.8094,-46.1972,
4.2110,-0.0992,-0.0259,1.0179,-0.0055,0.0059,0.0334,0.0060,0.0415,0.0010,-10.4732,2.8094,-46.1972,
4.2120,-0.0992,-0.0259,1.0179,-0.0055,0.0059,0.0334,0.0036,0.0009,-0.0014,-10.4732,2.8094,-46.1972,
4.2130,-0.1007,-0.0254,1.0153,-0.0055,0.0059,0.0334,0.0036,0.0009,-0.0014,-10.4732,2.8094,-46.1972,
4.2130,-0.1007,-0.0254,1.0153,0.0419,0.0052,0.0151,0.0036,0.0009,-0.0014,-10.4732,2.8094,-46.1972,
4.2430,-0.1007,-0.0254,1.0153,0.0419,0.0052,0.0151,0.0036,0.0009,-0.0014,-10.4609,2.8160,-46.1867,
4.2450,-0.1007,-0.0254,1.0153,0.0419,0.0052,0.0151,0.0008,-0.0382,-0.0020,-10.4609,2.8160,-46.1867,
4.2460,-0.1024,-0.0253,1.0155,0.0419,0.0052,0.0151,0.0008,-0.0382,-0.0020,-10.4609,2.8160,-46.1867,
4.2710,-0.1024,-0.0253,1.0155,0.0130,0.0035,0.0054,0.0008,-0.0382,-0.0020,-10.4609,2.8160,-46.1867,
4.2730,-0.1024,-0.0253,1.0155,0.0130,0.0035,0.0054,-0.0071,0.0021,0.0014,-10.4609,2.8160,-46.1867,
4.2730,-0.1002,-0.0267,1.0183,0.0130,0.0035,0.0054,-0.0071,0.0021,0.0014,-10.4609,2.8160,-46.1867,
4.2750,-0.0938,-0.0255,1.0239,0.0130,0.0035,0.0054,-0.0071,0.0021,0.0014,-10.4609,2.8160,-46.1867,
4.3120,-0.0903,-0.0234,1.0299,0.0130,0.0035,0.0054,-0.0071,0.0021,0.0014,-10.4609,2.8160,-46.1867,
4.3130,-0.0985,-0.0239,1.0306,0.0130,0.0035,0.0054,-0.0071,0.0021,0.0014,-10.4609,2.8160,-46.1867,
4.3140,-0.0985,-0.0239,1.0306,0.0130,0.0035,0.0054,0.0020,0.0528,-0.0008,-10.4609,2.8160,-46.1867,
4.3200,-0.0985,-0.0239,1.0306,0.0130,0.0035,0.0054,0.0020,0.0528,-0.0008,-10.4312,2.8345,-46.1728,
4.3470,-0.0985,-0.0239,1.0306,0.0130,0.0035,0.0054,0.0158,-0.0425,-0.0014,-10.4312,2.8345,-46.1728,
4.3480,-0.1069,-0.0282,1.0262,0.0130,0.0035,0.0054,0.0158,-0.0425,-0.0014,-10.4312,2.8345,-46.1728,
4.3480,-0.1070,-0.0282,1.0126,0.0130,0.0035,0.0054,0.0158,-0.0425,-0.0014,-10.4312,2.8345,-46.1728,
4.3490,-0.1070,-0.0282,1.0126,0.0208,-0.0046,0.0249,0.0158,-0.0425,-0.0014,-10.4312,2.8345,-46.1728,
4.3770,-0.1055,-0.0266,1.0042,0.0208,-0.0046,0.0249,0.0158,-0.0425,-0.0014,-10.4312,2.8345,-46.1728,
4.3810,-0.1055,-0.0266,1.0042,0.0208,-0.0046,0.0249,0.0158,-0.0425,-0.0014,-10.3767,2.8475,-46.1840,
4.4080,-0.1042,-0.0249,1.0050,0.0208,-0.0046,0.0249,0.0158,-0.0425,-0.0014,-10.3767,2.8475,-46.1840,
4.4090,-0.0941,-0.0245,1.0135,0.0208,-0.0046,0.0249,0.0158,-0.0425,-0.0014,-10.3767,2.8475,-46.1840,
4.4100,-0.0941,-0.0245,1.0135,0.0208,-0.0046,0.0249,-0.0059,-0.0712,-0.0051,-10.3767,2.8475,-46.1840,
4.4110,-0.0941,-0.0245,1.0135,-0.0403,0.0017,0.0536,-0.0059,-0.0712,-0.0051,-10.3767,2.8475,-46.1840,
4.4420,-0.0941,-0.0245,1.0135,-0.0403,0.0017,0.0536,-0.0374,0.0382,-0.0017,-10.3767,2.8475,-46.1840,
4.4440,-0.0849,-0.0242,1.0256,-0.0403,0.0017,0.0536,-0.0374,0.0382,-0.0017,-10.3767,2.8475,-46.1840,
4.4450,-0.0849,-0.0242,1.0256,-0.0403,0.0017,0.0536,-0.0374,0.0382,-0.0017,-10.3245,2.8475,-46.1766,
4.4840,-0.0849,-0.0242,1.0256,-0.0403,0.0017,0.0536,-0.0294,0.0492,0.0010,-10.3245,2.8475,-46.1766,
4.4850,-0.0872,-0.0240,1.0313,-0.0403,0.0017,0.0536,-0.0294,0.0492,0.0010,-10.3245,2.8475,-46.1766,
4.4850,-0.0967,-0.0271,1.0301,-0.0403,0.0017,0.0536,-0.0294,0.0492,0.0010,-10.3245,2.8475,-46.1766,
4.4860,-0.1009,-0.0299,1.0251,-0.0403,0.0017,0.0536,-0.0294,0.0492,0.0010,-10.3245,2.8475,-46.1766,
4.4860,-0.1009,-0.0299,1.0251,0.0170,0.0249,-0.0763,-0.0294,0.0492,0.0010,-10.3245,2.8475,-46.1766,
4.5110,-0.1024,-0.0289,1.0206,0.0170,0.0249,-0.0763,-0.0294,0.0492,0.0010,-10.3245,2.8475,-46.1766,
4.5120,-0.1024,-0.0289,1.0206,0.0170,0.0249,-0.0763,0.0030,0.0091,0.0032,-10.3245,2.8475,-46.1766,
4.5210,-0.1024,-0.0289,1.0206,0.0170,0.0249,-0.0763,0.0030,0.0091,0.0032,-10.2895,2.8692,-46.1401,
4.5430,-0.1003,-0.0271,1.0180,0.0170,0.0249,-0.0763,0.0030,0.0091,0.0032,-10.2895,2.8692,-46.1401,
4.5450,-0.0976,-0.0259,1.0174,0.0170,0.0249,-0.0763,0.0030,0.0091,0.0032,-10.2895,2.8692,-46.1401,
4.5460,-0.0976,-0.0259,1.0174,0.0170,0.0249,-0.0763,0.0158,-0.0016,-0.0002,-10.2895,2.8692,-46.1401,
4.5460,-0.0976,-0.0259,1.0174,0.0633,0.0015,0.0976,0.0158,-0.0016,-0.0002,-10.2895,2.8692,-46.1401,
4.5790,-0.0974,-0.0266,1.0170,0.0633,0.0015,0.0976,0.0158,-0.0016,-0.0002,-10.2895,2.8692,-46.1401,
4.5800,-0.0974,-0.0266,1.0170,0.0633,0.0015,0.0976,0.0158,-0.0016,-0.0002,-10.2618,2.9086,-46.1711,
4.6200,-0.0998,-0.0266,1.0137,0.0633,0.0015,0.0976,0.0158,-0.0016,-0.0002,-10.2618,2.9086,-46.1711,
4.6210,-0.0998,-0.0266,1.0137,0.0633,0.0015,0.0976,0.0146,-0.0257,-0.0035,-10.2618,2.9086,-46.1711,
4.6220,-0.0998,-0.0266,1.0137,0.0633,0.0015,0.0976,0.0011,-0.0290,-0.0002,-10.2618,2.9086,-46.1711,
4.6220,-0.1014,-0.0272,1.0126,0.0633,0.0015,0.0976,0.0011,-0.0290,-0.0002,-10.2618,2.9086,-46.1711,
4.6230,-0.1013,-0.0271,1.0141,0.0633,0.0015,0.0976,0.0011,-0.0290,-0.0002,-10.2618,2.9086,-46.1711,
4.6230,-0.1013,-0.0271,1.0141,-0.0153,-0.0086,-0.0051,0.0011,-0.0290,-0.0002,-10.2618,2.9086,-46.1711,
4.6420,-0.1013,-0.0271,1.0141,-0.0153,-0.0086,-0.0051,0.0011,-0.0290,-0.0002,-10.2606,2.9266,-46.1772,
4.6430,-0.0943,-0.0262,1.0163,-0.0153,-0.0086,-0.0051,0.0011,-0.0290,-0.0002,-10.2606,2.9266,-46.1772,
4.6790,-0.0934,-0.0262,1.0201,-0.0153,-0.0086,-0.0051,0.0011,-0.0290,-0.0002,-10.2606,2.9266,-46.1772,
4.6800,-0.0986,-0.0281,1.0232,-0.0153,-0.0086,-0.0051,0.0011,-0.0290,-0.0002,-10.2606,2.9266,-46.1772,
4.6800,-0.0986,-0.0281,1.0232,-0.0153,-0.0086,-0.0051,-0.0108,0.0217,-0.0005,-10.2606,2.9266,-46.1772,
4.6810,-0.0986,-0.0281,1.0232,0.0001,0.0011,-0.0410,-0.0108,0.0217,-0.0005,-10.2606,2.9266,-46.1772,
4.7110,-0.1031,-0.0279,1.0218,0.0001,0.0011,-0.0410,-0.0108,0.0217,-0.0005,-10.2606,2.9266,-46.1772,
4.7120,-0.1031,-0.0279,1.0218,0.0001,0.0011,-0.0410,-0.0035,0.0421,0.0017,-10.2606,2.9266,-46.1772,
4.7210,-0.1031,-0.0279,1.0218,0.0001,0.0011,-0.0410,-0.0035,0.0421,0.0017,-10.2432,2.9399,-46.1781,
4.7220,-0.1036,-0.0273,1.0200,0.0001,0.0011,-0.0410,-0.0035,0.0421,0.0017,-10.2432,2.9399,-46.1781,
4.7580,-0.1004,-0.0259,1.0196,0.0001,0.0011,-0.0410,-0.0035,0.0421,0.0017,-10.2432,2.9399,-46.1781,
4.7590,-0.1004,-0.0259,1.0196,0.0001,0.0011,-0.0410,0.0014,0.0049,-0.0011,-10.2432,2.9399,-46.1781,
4.7600,-0.0963,-0.0248,1.0207,0.0001,0.0011,-0.0410,0.0014,0.0049,-0.0011,-10.2432,2.9399,-46.1781,
4.7600,-0.0963,-0.0248,1.0207,0.0360,-0.0008,0.0182,0.0014,0.0049,-0.0011,-10.2432,2.9399,-46.1781,
4.7780,-0.0963,-0.0248,1.0207,0.0360,-0.0008,0.0182,-0.0007,-0.0074,-0.0029,-10.2432,2.9399,-46.1781,
4.7800,-0.0934,-0.0256,1.0222,0.0360,-0.0008,0.0182,-0.0007,-0.0074,-0.0029,-10.2432,2.9399,-46.1781,
4.7800,-0.0934,-0.0256,1.0222,0.0360,-0.0008,0.0182,-0.0007,-0.0074,-0.0029,-10.2121,2.9588,-46.1982,
4.8160,-0.0934,-0.0256,1.0222,-0.0036,0.0041,0.0157,-0.0007,-0.0074,-0.0029,-10.2121,2.9588,-46.1982,
4.8170,-0.0934,-0.0256,1.0222,-0.0036,0.0041,0.0157,0.0042,-0.0028,-0.0002,-10.2121,2.9588,-46.1982,
4.8180,-0.0937,-0.0259,1.0203,-0.0036,0.0041,0.0157,0.0042,-0.0028,-0.0002,-10.2121,2.9588,-46.1982,
4.8180,-0.0964,-0.0271,1.0179,-0.0036,0.0041,0.0157,0.0042,-0.0028,-0.0002,-10.2121,2.9588,-46.1982,
4.8410,-0.0964,-0.0271,1.0179,-0.0036,0.0041,0.0157,0.0042,-0.0028,-0.0002,-10.1823,2.9330,-46.1969,
4.8430,-0.0997,-0.0271,1.0167,-0.0036,0.0041,0.0157,0.0042,-0.0028,-0.0002,-10.1823,2.9330,-46.1969,
4.8790,-0.0997,-0.0271,1.0167,-0.0036,0.0041,0.0157,0.0005,0.0159,0.0010,-10.1823,2.9330,-46.1969,
4.8800,-0.0994,-0.0277,1.0183,-0.0036,0.0041,0.0157,0.0005,0.0159,0.0010,-10.1823,2.9330,-46.1969,
4.8810,-0.0982,-0.0267,1.0203,-0.0036,0.0041,0.0157,0.0005,0.0159,0.0010,-10.1823,2.9330,-46.1969,
4.8940,-0.0982,-0.0267,1.0203,0.0462,0.0048,0.0097,0.0005,0.0159,0.0010,-10.1823,2.9330,-46.1969,
4.8960,-0.0982,-0.0267,1.0203,0.0462,0.0048,0.0097,-0.0035,-0.0037,-0.0011,-10.1823,2.9330,-46.1969,
4.8960,-0.0983,-0.0271,1.0195,0.0462,0.0048,0.0097,-0.0035,-0.0037,-0.0011,-10.1823,2.9330,-46.1969,
4.9200,-0.0983,-0.0271,1.0195,0.0462,0.0048,0.0097,-0.0035,-0.0037,-0.0011,-10.2083,2.9238,-46.1797,
4.9210,-0.1007,-0.0274,1.0175,0.0462,0.0048,0.0097,-0.0035,-0.0037,-0.0011,-10.2083,2.9238,-46.1797,
4.9540,-0.1007,-0.0274,1.0175,0.0013,-0.0046,0.0012,-0.0035,-0.0037,-0.0011,-10.2083,2.9238,-46.1797,
4.9550,-0.1007,-0.0274,1.0175,0.0013,-0.0046,0.0012,0.0026,-0.0156,-0.0014,-10.2083,2.9238,-46.1797,
4.9560,-0.0997,-0.0263,1.0161,0.0013,-0.0046,0.0012,0.0026,-0.0156,-0.0014,-10.2083,2.9238,-46.1797,
4.9560,-0.1005,-0.0261,1.0166,0.0013,-0.0046,0.0012,0.0026,-0.0156,-0.0014,-10.2083,2.9238,-46.1797,
4.9780,-0.1019,-0.0250,1.0173,0.0013,-0.0046,0.0012,0.0026,-0.0156,-0.0014,-10.2083,2.9238,-46.1797,
4.9790,-0.1019,-0.0250,1.0173,0.0013,-0.0046,0.0012,-0.0004,-0.0080,-0.0017,-10.2083,2.9238,-46.1797,
4.9810,-0.1019,-0.0250,1.0173,0.0013,-0.0046,0.0012,-0.0004,-0.0080,-0.0017,-10.2043,2.9388,-46.1765,
5.0330,-0.1019,-0.0250,1.0173,-0.0076,0.0063,-0.0171,-0.0004,-0.0080,-0.0017,-10.2043,2.9388,-46.1765,
5.0350,-0.1019,-0.0250,1.0173,-0.0076,0.0063,-0.0171,-0.0068,0.0033,-0.0011,-10.2043,2.9388,-46.1765,
5.0350,-0.0996,-0.0262,1.0178,-0.0076,0.0063,-0.0171,-0.0068,0.0033,-0.0011,-10.2043,2.9388,-46.1765,
5.0360,-0.0971,-0.0272,1.0184,-0.0076,0.0063,-0.0171,-0.0068,0.0033,-0.0011,-10.2043,2.9388,-46.1765,
5.0360,-0.0956,-0.0263,1.0201,-0.0076,0.0063,-0.0171,-0.0068,0.0033,-0.0011,-10.2043,2.9388,-46.1765,
5.0440,-0.0956,-0.0263,1.0201,-0.0076,0.0063,-0.0171,-0.0068,0.0033,-0.0011,-10.2342,2.9185,-46.1859,
5.0900,-0.0956,-0.0263,1.0201,-0.0076,0.0063,-0.0171,-0.0029,0.0333,0.0014,-10.2342,2.9185,-46.1859,
5.0910,-0.0972,-0.0265,1.0219,-0.0076,0.0063,-0.0171,-0.0029,0.0333,0.0014,-10.2342,2.9185,-46.1859,
5.0920,-0.0978,-0.0260,1.0197,-0.0076,0.0063,-0.0171,-0.0029,0.0333,0.0014,-10.2342,2.9185,-46.1859,
5.0930,-0.0982,-0.0273,1.0175,-0.0076,0.0063,-0.0171,-0.0029,0.0333,0.0014,-10.2342,2.9185,-46.1859,
5.0930,-0.0982,-0.0273,1.0175,-0.0076,0.0063,-0.0171,0.0081,0.0180,-0.0002,-10.2342,2.9185,-46.1859,
5.0940,-0.0982,-0.0273,1.0175,0.0260,0.0023,0.0016,0.0081,0.0180,-0.0002,-10.2342,2.9185,-46.1859,
5.1110,-0.0981,-0.0271,1.0140,0.0260,0.0023,0.0016,0.0081,0.0180,-0.0002,-10.2342,2.9185,-46.1859,
5.1210,-0.0981,-0.0271,1.0140,0.0260,0.0023,0.0016,0.0081,0.0180,-0.0002,-10.2406,2.9029,-46.1878,
5.1690,-0.0981,-0.0271,1.0140,0.0096,-0.0018,0.0038,0.0081,0.0180,-0.0002,-10.2406,2.9029,-46.1878,
5.1700,-0.0987,-0.0285,1.0107,0.0096,-0.0018,0.0038,0.0081,0.0180,-0.0002,-10.2406,2.9029,-46.1878,
5.1710,-0.0987,-0.0285,1.0107,0.0096,-0.0018,0.0038,0.0097,-0.0232,-0.0005,-10.2406,2.9029,-46.1878,
5.1720,-0.0999,-0.0278,1.0113,0.0096,-0.0018,0.0038,0.0097,-0.0232,-0.0005,-10.2406,2.9029,-46.1878,
5.1730,-0.0999,-0.0278,1.0113,0.0096,-0.0018,0.0038,0.0011,-0.0245,-0.0026,-10.2406,2.9029,-46.1878,
5.1730,-0.1016,-0.0261,1.0135,0.0096,-0.0018,0.0038,0.0011,-0.0245,-0.0026,-10.2406,2.9029,-46.1878,
5.1810,-0.1016,-0.0261,1.0135,0.0096,-0.0018,0.0038,0.0011,-0.0245,-0.0026,-10.1734,2.9026,-46.1801,
5.2260,-0.1016,-0.0261,1.0135,0.0135,-0.0090,-0.0556,0.0011,-0.0245,-0.0026,-10.1734,2.9026,-46.1801,
5.2280,-0.1016,-0.0261,1.0135,0.0135,-0.0090,-0.0556,-0.0080,0.0094,0.0026,-10.1734,2.9026,-46.1801,
5.2280,-0.0980,-0.0267,1.0158,0.0135,-0.0090,-0.0556,-0.0080,0.0094,0.0026,-10.1734,2.9026,-46.1801,
5.2290,-0.0908,-0.0251,1.0213,0.0135,-0.0090,-0.0556,-0.0080,0.0094,0.0026,-10.1734,2.9026,-46.1801,
5.2300,-0.0899,-0.0235,1.0275,0.0135,-0.0090,-0.0556,-0.0080,0.0094,0.0026,-10.1734,2.9026,-46.1801,
5.2410,-0.0899,-0.0235,1.0275,0.0135,-0.0090,-0.0556,-0.0080,0.0094,0.0026,-10.1441,2.8913,-46.1947,
5.3050,-0.0899,-0.0235,1.0275,0.0397,0.0117,0.0425,-0.0080,0.0094,0.0026,-10.1441,2.8913,-46.1947,
5.3070,-0.0899,-0.0235,1.0275,0.0397,0.0117,0.0425,0.0039,0.0644,-0.0008,-10.1441,2.8913,-46.1947,
5.3080,-0.1014,-0.0254,1.0307,0.0397,0.0117,0.0425,0.0039,0.0644,-0.0008,-10.1441,2.8913,-46.1947,
5.3080,-0.1097,-0.0288,1.0245,0.0397,0.0117,0.0425,0.0039,0.0644,-0.0008,-10.1441,2.8913,-46.1947,
5.3090,-0.1097,-0.0288,1.0245,0.0397,0.0117,0.0425,0.0103,-0.0425,-0.0008,-10.1441,2.8913,-46.1947,
5.3100,-0.1066,-0.0284,1.0134,0.0397,0.0117,0.0425,0.0103,-0.0425,-0.0008,-10.1441,2.8913,-46.1947,
5.3100,-0.1071,-0.0242,1.0067,0.0397,0.0117,0.0425,0.0103,-0.0425,-0.0008,-10.1441,2.8913,-46.1947,
5.3210,-0.1071,-0.0242,1.0067,0.0397,0.0117,0.0425,0.0103,-0.0425,-0.0008,-10.1353,2.8860,-46.1930,
5.3630,-0.1071,-0.0242,1.0067,-0.0782,0.0083,-0.0112,0.0103,-0.0425,-0.0008,-10.1353,2.8860,-46.1930,
5.3640,-0.1071,-0.0242,1.0067,-0.0782,0.0083,-0.0112,-0.0148,-0.0758,-0.0057,-10.1353,2.8860,-46.1930,
5.3640,-0.1071,-0.0242,1.0067,-0.0782,0.0083,-0.0112,-0.0291,0.0342,0.0001,-10.1353,2.8860,-46.1930,
5.3650,-0.1005,-0.0233,1.0076,-0.0782,0.0083,-0.0112,-0.0291,0.0342,0.0001,-10.1353,2.8860,-46.1930,
5.3650,-0.0883,-0.0257,1.0140,-0.0782,0.0083,-0.0112,-0.0291,0.0342,0.0001,-10.1353,2.8860,-46.1930,
5.3660,-0.0814,-0.0279,1.0228,-0.0782,0.0083,-0.0112,-0.0291,0.0342,0.0001,-10.1353,2.8860,-46.1930,
5.3820,-0.0814,-0.0279,1.0228,-0.0782,0.0083,-0.0112,-0.0291,0.0342,0.0001,-10.1647,2.9150,-46.1941,
5.4420,-0.0866,-0.0290,1.0246,-0.0782,0.0083,-0.0112,-0.0291,0.0342,0.0001,-10.1647,2.9150,-46.1941,
5.4440,-0.0983,-0.0305,1.0229,-0.0782,0.0083,-0.0112,-0.0291,0.0342,0.0001,-10.1647,2.9150,-46.1941,
5.4450,-0.1016,-0.0305,1.0183,-0.0782,0.0083,-0.0112,-0.0291,0.0342,0.0001,-10.1647,2.9150,-46.1941,
5.4450,-0.1013,-0.0274,1.0190,-0.0782,0.0083,-0.0112,-0.0291,0.0342,0.0001,-10.1647,2.9150,-46.1941,
5.4460,-0.1013,-0.0274,1.0190,-0.0782,0.0083,-0.0112,-0.0291,0.0342,0.0001,-10.1475,2.9372,-46.1854,
5.4470,-0.1013,-0.0274,1.0190,-0.0782,0.0083,-0.0112,-0.0111,0.0433,0.0026,-10.1475,2.9372,-46.1854,
5.4470,-0.1013,-0.0274,1.0190,-0.0782,0.0083,-0.0112,0.0176,0.0039,0.0014,-10.1475,2.9372,-46.1854,
5.4480,-0.1013,-0.0274,1.0190,0.0999,0.0114,-0.0173,0.0176,0.0039,0.0014,-10.1475,2.9372,-46.1854,
5.5000,-0.1003,-0.0257,1.0167,0.0999,0.0114,-0.0173,0.0176,0.0039,0.0014,-10.1475,2.9372,-46.1854,
5.5010,-0.1003,-0.0257,1.0167,0.0999,0.0114,-0.0173,0.0194,-0.0104,-0.0017,-10.1475,2.9372,-46.1854,
5.5020,-0.0982,-0.0255,1.0126,0.0999,0.0114,-0.0173,0.0194,-0.0104,-0.0017,-10.1475,2.9372,-46.1854,
5.5030,-0.0987,-0.0263,1.0112,0.0999,0.0114,-0.0173,0.0194,-0.0104,-0.0017,-10.1475,2.9372,-46.1854,
5.5030,-0.0987,-0.0263,1.0112,-0.0080,-0.0252,0.0231,0.0194,-0.0104,-0.0017,-10.1475,2.9372,-46.1854,
5.5210,-0.1000,-0.0277,1.0126,-0.0080,-0.0252,0.0231,0.0194,-0.0104,-0.0017,-10.1475,2.9372,-46.1854,
5.5230,-0.1000,-0.0277,1.0126,-0.0080,-0.0252,0.0231,-0.0044,-0.0336,-0.0032,-10.1475,2.9372,-46.1854,
5.5230,-0.1000,-0.0277,1.0126,-0.0080,-0.0252,0.0231,-0.0044,-0.0336,-0.0032,-10.1812,2.9265,-46.2116,
5.5780,-0.1000,-0.0277,1.0126,-0.0080,-0.0252,0.0231,-0.0126,-0.0119,0.0004,-10.1812,2.9265,-46.2116,
5.5790,-0.1011,-0.0276,1.0151,-0.0080,-0.0252,0.0231,-0.0126,-0.0119,0.0004,-10.1812,2.9265,-46.2116,
5.5800,-0.0980,-0.0268,1.0177,-0.0080,-0.0252,0.0231,-0.0126,-0.0119,0.0004,-10.1812,2.9265,-46.2116,
5.5800,-0.0926,-0.0263,1.0184,-0.0080,-0.0252,0.0231,-0.0126,-0.0119,0.0004,-10.1812,2.9265,-46.2116,
5.5810,-0.0926,-0.0263,1.0184,-0.0140,0.0137,-0.0453,-0.0126,-0.0119,0.0004,-10.1812,2.9265,-46.2116,
5.5810,-0.0926,-0.0263,1.0184,-0.0140,0.0137,-0.0453,-0.0126,-0.0119,0.0004,-10.1474,2.9322,-46.2224,
5.6370,-0.0926,-0.0263,1.0184,-0.0140,0.0137,-0.0453,-0.0047,0.0250,0.0007,-10.1474,2.9322,-46.2224,
5.6380,-0.0933,-0.0260,1.0197,-0.0140,0.0137,-0.0453,-0.0047,0.0250,0.0007,-10.1474,2.9322,-46.2224,
5.6390,-0.0986,-0.0274,1.0189,-0.0140,0.0137,-0.0453,-0.0047,0.0250,0.0007,-10.1474,2.9322,-46.2224,
5.6400,-0.1019,-0.0274,1.0142,-0.0140,0.0137,-0.0453,-0.0047,0.0250,0.0007,-10.1474,2.9322,-46.2224,
5.6400,-0.1019,-0.0274,1.0142,-0.0140,0.0137,-0.0453,0.0115,0.0189,0.0004,-10.1474,2.9322,-46.2224,
5.6400,-0.1019,-0.0274,1.0142,0.0136,-0.0009,-0.0097,0.0115,0.0189,0.0004,-10.1474,2.9322,-46.2224,
5.6410,-0.1019,-0.0274,1.0142,0.0136,-0.0009,-0.0097,0.0115,0.0189,0.0004,-10.1050,2.9257,-46.2252,
5.7120,-0.0987,-0.0261,1.0146,0.0136,-0.0009,-0.0097,0.0115,0.0189,0.0004,-10.1050,2.9257,-46.2252,
5.7130,-0.0987,-0.0261,1.0146,0.0136,-0.0009,-0.0097,0.0060,0.0061,-0.0017,-10.1050,2.9257,-46.2252,
5.7140,-0.0967,-0.0257,1.0161,0.0136,-0.0009,-0.0097,0.0060,0.0061,-0.0017,-10.1050,2.9257,-46.2252,
5.7160,-0.0948,-0.0251,1.0196,0.0136,-0.0009,-0.0097,0.0060,0.0061,-0.0017,-10.1050,2.9257,-46.2252,
5.7160,-0.0941,-0.0263,1.0217,0.0136,-0.0009,-0.0097,0.0060,0.0061,-0.0017,-10.1050,2.9257,-46.2252,
5.7170,-0.0941,-0.0263,1.0217,0.0136,-0.0009,-0.0097,-0.0007,-0.0003,-0.0032,-10.1050,2.9257,-46.2252,
5.7170,-0.0941,-0.0263,1.0217,0.0096,-0.0006,-0.0033,-0.0007,-0.0003,-0.0032,-10.1050,2.9257,-46.2252,
5.7230,-0.0941,-0.0263,1.0217,0.0096,-0.0006,-0.0033,-0.0007,-0.0003,-0.0032,-10.1347,2.9001,-46.2260,
5.7720,-0.0945,-0.0271,1.0201,0.0096,-0.0006,-0.0033,-0.0007,-0.0003,-0.0032,-10.1347,2.9001,-46.2260,
5.7740,-0.0945,-0.0271,1.0201,0.0305,0.0071,0.0082,-0.0007,-0.0003,-0.0032,-10.1347,2.9001,-46.2260,
5.7750,-0.0965,-0.0287,1.0184,0.0305,0.0071,0.0082,-0.0007,-0.0003,-0.0032,-10.1347,2.9001,-46.2260,
5.7750,-0.0975,-0.0282,1.0192,0.0305,0.0071,0.0082,-0.0007,-0.0003,-0.0032,-10.1347,2.9001,-46.2260,
5.7760,-0.0975,-0.0282,1.0192,0.0305,0.0071,0.0082,0.0057,-0.0003,0.0007,-10.1347,2.9001,-46.2260,
5.7800,-0.0975,-0.0282,1.0192,0.0305,0.0071,0.0082,0.0057,-0.0003,0.0007,-10.1477,2.9097,-46.1934,
5.8430,-0.0975,-0.0282,1.0192,0.0305,0.0071,0.0082,0.0045,-0.0003,-0.0005,-10.1477,2.9097,-46.1934,
5.8450,-0.0986,-0.0289,1.0179,0.0305,0.0071,0.0082,0.0045,-0.0003,-0.0005,-10.1477,2.9097,-46.1934,
5.8450,-0.0977,-0.0266,1.0173,0.0305,0.0071,0.0082,0.0045,-0.0003,-0.0005,-10.1477,2.9097,-46.1934,
5.8460,-0.0969,-0.0260,1.0173,0.0305,0.0071,0.0082,0.0045,-0.0003,-0.0005,-10.1477,2.9097,-46.1934,
5.8460,-0.0969,-0.0260,1.0173,0.0305,0.0071,0.0082,0.0036,-0.0125,-0.0026,-10.1477,2.9097,-46.1934,
5.8470,-0.0969,-0.0260,1.0173,0.0305,0.0071,0.0082,0.0036,-0.0125,-0.0026,-10.1712,2.8901,-46.1812,
5.8500,-0.0971,-0.0248,1.0159,0.0305,0.0071,0.0082,0.0036,-0.0125,-0.0026,-10.1712,2.8901,-46.1812,
5.8510,-0.0971,-0.0248,1.0159,0.0128,-0.0173,0.0127,0.0036,-0.0125,-0.0026,-10.1712,2.8901,-46.1812,
5.8760,-0.0971,-0.0248,1.0159,0.0128,-0.0173,0.0127,0.0063,-0.0058,-0.0005,-10.1712,2.8901,-46.1812,
5.8780,-0.0983,-0.0250,1.0166,0.0128,-0.0173,0.0127,0.0063,-0.0058,-0.0005,-10.1712,2.8901,-46.1812,
5.9110,-0.0983,-0.0250,1.0166,0.0003,-0.0009,-0.0092,0.0063,-0.0058,-0.0005,-10.1712,2.8901,-46.1812,
5.9130,-0.0992,-0.0260,1.0167,0.0003,-0.0009,-0.0092,0.0063,-0.0058,-0.0005,-10.1712,2.8901,-46.1812,
5.9130,-0.0986,-0.0249,1.0161,0.0003,-0.0009,-0.0092,0.0063,-0.0058,-0.0005,-10.1712,2.8901,-46.1812,
5.9140,-0.0986,-0.0249,1.0161,0.0003,-0.0009,-0.0092,0.0036,-0.0077,-0.0008,-10.1712,2.8901,-46.1812,
5.9200,-0.0986,-0.0249,1.0161,0.0003,-0.0009,-0.0092,0.0036,-0.0077,-0.0008,-10.1841,2.8633,-46.1948,
5.9790,-0.0986,-0.0249,1.0161,0.0003,-0.0009,-0.0092,-0.0029,-0.0012,-0.0011,-10.1841,2.8633,-46.1948,
5.9820,-0.0966,-0.0249,1.0167,0.0003,-0.0009,-0.0092,-0.0029,-0.0012,-0.0011,-10.1841,2.8633,-46.1948,
5.9820,-0.0955,-0.0255,1.0186,0.0003,-0.0009,-0.0092,-0.0029,-0.0012,-0.0011,-10.1841,2.8633,-46.1948,
5.9830,-0.0943,-0.0254,1.0200,0.0003,-0.0009,-0.0092,-0.0029,-0.0012,-0.0011,-10.1841,2.8633,-46.1948,
5.9830,-0.0943,-0.0254,1.0200,0.0003,-0.0009,-0.0092,-0.0029,-0.0012,-0.0011,-10.2082,2.8439,-46.1757,
5.9870,-0.0943,-0.0254,1.0200,0.0003,-0.0009,-0.0092,0.0005,0.0128,-0.0008,-10.2082,2.8439,-46.1757,
5.9870,-0.0953,-0.0253,1.0197,0.0003,-0.0009,-0.0092,0.0005,0.0128,-0.0008,-10.2082,2.8439,-46.1757,
5.9880,-0.0953,-0.0253,1.0197,-0.0046,0.0084,-0.0108,0.0005,0.0128,-0.0008,-10.2082,2.8439,-46.1757,
6.0420,-0.0960,-0.0256,1.0199,-0.0046,0.0084,-0.0108,0.0005,0.0128,-0.0008,-10.2082,2.8439,-46.1757,
6.0450,-0.0960,-0.0256,1.0199,-0.0046,0.0084,-0.0108,0.0063,0.0156,-0.0011,-10.2082,2.8439,-46.1757,
6.0450,-0.0959,-0.0248,1.0183,-0.0046,0.0084,-0.0108,0.0063,0.0156,-0.0011,-10.2082,2.8439,-46.1757,
6.0460,-0.0959,-0.0248,1.0183,-0.0046,0.0084,-0.0108,0.0063,0.0156,-0.0011,-10.2414,2.8481,-46.1608,
6.0470,-0.0966,-0.0263,1.0177,-0.0046,0.0084,-0.0108,0.0063,0.0156,-0.0011,-10.2414,2.8481,-46.1608,
6.0480,-0.0966,-0.0263,1.0177,0.0289,0.0025,0.0124,0.0063,0.0156,-0.0011,-10.2414,2.8481,-46.1608,
6.1140,-0.0966,-0.0263,1.0177,0.0289,0.0025,0.0124,0.0088,-0.0052,-0.0005,-10.2414,2.8481,-46.1608,
6.1160,-0.0955,-0.0271,1.0153,0.0289,0.0025,0.0124,0.0088,-0.0052,-0.0005,-10.2414,2.8481,-46.1608,
6.1160,-0.0964,-0.0266,1.0148,0.0289,0.0025,0.0124,0.0088,-0.0052,-0.0005,-10.2414,2.8481,-46.1608,
6.1170,-0.0989,-0.0250,1.0144,0.0289,0.0025,0.0124,0.0088,-0.0052,-0.0005,-10.2414,2.8481,-46.1608,
6.1170,-0.0989,-0.0250,1.0144,0.0289,0.0025,0.0124,0.0066,-0.0193,-0.0002,-10.2414,2.8481,-46.1608,
6.1200,-0.0989,-0.0250,1.0144,0.0289,0.0025,0.0124,0.0066,-0.0193,-0.0002,-10.2959,2.8392,-46.1628,
6.1250,-0.0986,-0.0245,1.0175,0.0289,0.0025,0.0124,0.0066,-0.0193,-0.0002,-10.2959,2.8392,-46.1628,
6.1260,-0.0986,-0.0245,1.0175,0.0074,-0.0055,0.0026,0.0066,-0.0193,-0.0002,-10.2959,2.8392,-46.1628,
6.1780,-0.0912,-0.0257,1.0214,0.0074,-0.0055,0.0026,0.0066,-0.0193,-0.0002,-10.2959,2.8392,-46.1628,
6.1790,-0.0912,-0.0257,1.0214,0.0074,-0.0055,0.0026,-0.0016,-0.0037,0.0001,-10.2959,2.8392,-46.1628,
6.1800,-0.0865,-0.0237,1.0264,0.0074,-0.0055,0.0026,-0.0016,-0.0037,0.0001,-10.2959,2.8392,-46.1628,
6.1810,-0.0865,-0.0237,1.0264,0.0074,-0.0055,0.0026,0.0008,0.0559,-0.0017,-10.2959,2.8392,-46.1628,
6.1820,-0.0865,-0.0237,1.0264,0.0074,-0.0055,0.0026,0.0008,0.0559,-0.0017,-10.3387,2.8436,-46.1430,
6.1830,-0.0928,-0.0228,1.0313,0.0074,-0.0055,0.0026,0.0008,0.0559,-0.0017,-10.3387,2.8436,-46.1430,
6.1830,-0.0928,-0.0228,1.0313,0.0164,-0.0032,-0.0186,0.0008,0.0559,-0.0017,-10.3387,2.8436,-46.1430,
6.2420,-0.1042,-0.0248,1.0269,0.0164,-0.0032,-0.0186,0.0008,0.0559,-0.0017,-10.3387,2.8436,-46.1430,
6.2450,-0.1042,-0.0248,1.0269,0.0164,-0.0032,-0.0186,0.0008,0.0559,-0.0017,-10.3505,2.8568,-46.1609,
6.2460,-0.1042,-0.0248,1.0269,0.0164,-0.0032,-0.0186,0.0121,-0.0315,-0.0032,-10.3505,2.8568,-46.1609,
6.2470,-0.1024,-0.0262,1.0140,0.0164,-0.0032,-0.0186,0.0121,-0.0315,-0.0032,-10.3505,2.8568,-46.1609,
6.2480,-0.1029,-0.0251,1.0034,0.0164,-0.0032,-0.0186,0.0121,-0.0315,-0.0032,-10.3505,2.8568,-46.1609,
6.2600,-0.1018,-0.0237,1.0007,0.0164,-0.0032,-0.0186,0.0121,-0.0315,-0.0032,-10.3505,2.8568,-46.1609,
6.2610,-0.1018,-0.0237,1.0007,0.0164,-0.0032,-0.0186,-0.0032,-0.1054,-0.0044,-10.3505,2.8568,-46.1609,
6.2620,-0.1018,-0.0237,1.0007,0.0135,0.0086,0.0772,-0.0032,-0.1054,-0.0044,-10.3505,2.8568,-46.1609,
6.3130,-0.0932,-0.0245,1.0041,0.0135,0.0086,0.0772,-0.0032,-0.1054,-0.0044,-10.3505,2.8568,-46.1609,
6.3160,-0.0932,-0.0245,1.0041,0.0135,0.0086,0.0772,-0.0273,-0.0098,-0.0032,-10.3505,2.8568,-46.1609,
6.3160,-0.0821,-0.0245,1.0155,0.0135,0.0086,0.0772,-0.0273,-0.0098,-0.0032,-10.3505,2.8568,-46.1609,
6.3210,-0.0795,-0.0257,1.0279,0.0135,0.0086,0.0772,-0.0273,-0.0098,-0.0032,-10.3505,2.8568,-46.1609,
6.3220,-0.0795,-0.0257,1.0279,-0.0609,0.0154,-0.0871,-0.0273,-0.0098,-0.0032,-10.3505,2.8568,-46.1609,
6.3240,-0.0795,-0.0257,1.0279,-0.0609,0.0154,-0.0871,-0.0273,-0.0098,-0.0032,-10.3467,2.8573,-46.1502,
6.3790,-0.0851,-0.0271,1.0339,-0.0609,0.0154,-0.0871,-0.0273,-0.0098,-0.0032,-10.3467,2.8573,-46.1502,
6.3810,-0.0851,-0.0271,1.0339,-0.0609,0.0154,-0.0871,-0.0258,0.0889,0.0023,-10.3467,2.8573,-46.1502,
6.3820,-0.0963,-0.0284,1.0323,-0.0609,0.0154,-0.0871,-0.0258,0.0889,0.0023,-10.3467,2.8573,-46.1502,
6.3830,-0.0963,-0.0284,1.0323,-0.0609,0.0154,-0.0871,0.0026,0.0379,0.0023,-10.3467,2.8573,-46.1502,
6.3830,-0.1030,-0.0282,1.0262,-0.0609,0.0154,-0.0871,0.0026,0.0379,0.0023,-10.3467,2.8573,-46.1502,
6.3840,-0.1030,-0.0282,1.0262,-0.0609,0.0154,-0.0871,0.0026,0.0379,0.0023,-10.3605,2.8582,-46.1623,
6.3970,-0.1025,-0.0279,1.0217,-0.0609,0.0154,-0.0871,0.0026,0.0379,0.0023,-10.3605,2.8582,-46.1623,
6.3980,-0.1025,-0.0279,1.0217,0.1237,0.0112,0.0090,0.0026,0.0379,0.0023,-10.3605,2.8582,-46.1623,
6.4400,-0.0988,-0.0267,1.0189,0.1237,0.0112,0.0090,0.0026,0.0379,0.0023,-10.3605,2.8582,-46.1623,
6.4410,-0.0988,-0.0267,1.0189,0.1237,0.0112,0.0090,0.0026,0.0379,0.0023,-10.3340,2.8427,-46.1234,
6.4410,-0.0960,-0.0256,1.0183,0.1237,0.0112,0.0090,0.0026,0.0379,0.0023,-10.3340,2.8427,-46.1234,
6.4410,-0.0960,-0.0256,1.0183,0.1237,0.0112,0.0090,0.0143,-0.0049,0.0001,-10.3340,2.8427,-46.1234,
6.4540,-0.0960,-0.0242,1.0170,0.1237,0.0112,0.0090,0.0143,-0.0049,0.0001,-10.3340,2.8427,-46.1234,
6.4540,-0.0960,-0.0242,1.0170,0.1237,0.0112,0.0090,0.0069,-0.0165,-0.0048,-10.3340,2.8427,-46.1234,
6.4550,-0.0960,-0.0242,1.0170,-0.0220,-0.0207,0.0890,0.0069,-0.0165,-0.0048,-10.3340,2.8427,-46.1234,
6.5100,-0.0960,-0.0242,1.0170,-0.0220,-0.0207,0.0890,-0.0032,-0.0229,-0.0008,-10.3340,2.8427,-46.1234,
6.5100,-0.0974,-0.0237,1.0161,-0.0220,-0.0207,0.0890,-0.0032,-0.0229,-0.0008,-10.3340,2.8427,-46.1234,
6.5100,-0.0948,-0.0229,1.0167,-0.0220,-0.0207,0.0890,-0.0032,-0.0229,-0.0008,-10.3340,2.8427,-46.1234,
6.5200,-0.0921,-0.0228,1.0180,-0.0220,-0.0207,0.0890,-0.0032,-0.0229,-0.0008,-10.3340,2.8427,-46.1234,
6.5210,-0.0921,-0.0228,1.0180,-0.0220,-0.0207,0.0890,-0.0032,-0.0229,-0.0008,-10.3654,2.8244,-46.1664,
6.5320,-0.0919,-0.0239,1.0206,-0.0220,-0.0207,0.0890,-0.0032,-0.0229,-0.0008,-10.3654,2.8244,-46.1664,
6.5330,-0.0919,-0.0239,1.0206,-0.0220,-0.0207,0.0890,-0.0080,0.0018,-0.0014,-10.3654,2.8244,-46.1664,
6.5330,-0.0919,-0.0239,1.0206,-0.0097,0.0108,-0.0088,-0.0080,0.0018,-0.0014,-10.3654,2.8244,-46.1664,
6.5760,-0.0954,-0.0261,1.0219,-0.0097,0.0108,-0.0088,-0.0080,0.0018,-0.0014,-10.3654,2.8244,-46.1664,
6.5770,-0.0975,-0.0282,1.0199,-0.0097,0.0108,-0.0088,-0.0080,0.0018,-0.0014,-10.3654,2.8244,-46.1664,
6.5770,-0.0975,-0.0282,1.0199,-0.0097,0.0108,-0.0088,0.0014,0.0131,0.0001,-10.3654,2.8244,-46.1664,
6.5800,-0.0975,-0.0282,1.0199,-0.0097,0.0108,-0.0088,0.0014,0.0131,0.0001,-10.3398,2.8258,-46.1543,
6.5910,-0.0974,-0.0282,1.0174,-0.0097,0.0108,-0.0088,0.0014,0.0131,0.0001,-10.3398,2.8258,-46.1543,
6.5920,-0.0974,-0.0282,1.0174,0.0281,0.0234,-0.0039,0.0014,0.0131,0.0001,-10.3398,2.8258,-46.1543,
6.6400,-0.0949,-0.0276,1.0181,0.0281,0.0234,-0.0039,0.0014,0.0131,0.0001,-10.3398,2.8258,-46.1543,
6.6400,-0.0949,-0.0276,1.0181,0.0281,0.0234,-0.0039,0.0094,0.0122,0.0014,-10.3398,2.8258,-46.1543,
6.6410,-0.0954,-0.0255,1.0205,0.0281,0.0234,-0.0039,0.0094,0.0122,0.0014,-10.3398,2.8258,-46.1543,
6.6410,-0.0954,-0.0255,1.0205,0.0281,0.0234,-0.0039,0.0094,0.0122,0.0014,-10.2934,2.8297,-46.1577,
6.6690,-0.0954,-0.0249,1.0219,0.0281,0.0234,-0.0039,0.0094,0.0122,0.0014,-10.2934,2.8297,-46.1577,
6.6690,-0.0949,-0.0251,1.0216,0.0281,0.0234,-0.0039,0.0094,0.0122,0.0014,-10.2934,2.8297,-46.1577,
6.6690,-0.0949,-0.0251,1.0216,0.0281,0.0234,-0.0039,0.0045,0.0064,-0.0038,-10.2934,2.8297,-46.1577,
6.6700,-0.0949,-0.0251,1.0216,0.0017,-0.0179,0.0090,0.0045,0.0064,-0.0038,-10.2934,2.8297,-46.1577,
6.7100,-0.0939,-0.0261,1.0203,0.0017,-0.0179,0.0090,0.0045,0.0064,-0.0038,-10.2934,2.8297,-46.1577,
6.7100,-0.0939,-0.0261,1.0188,0.0017,-0.0179,0.0090,0.0045,0.0064,-0.0038,-10.2934,2.8297,-46.1577,
6.7100,-0.0939,-0.0261,1.0188,0.0017,-0.0179,0.0090,0.0008,0.0024,-0.0017,-10.2934,2.8297,-46.1577,
6.7200,-0.0939,-0.0261,1.0188,0.0017,-0.0179,0.0090,0.0008,0.0024,-0.0017,-10.2722,2.8300,-46.1677,
6.7270,-0.0939,-0.0261,1.0188,0.0017,-0.0179,0.0090,-0.0032,0.0061,0.0007,-10.2722,2.8300,-46.1677,
6.7280,-0.0950,-0.0272,1.0175,0.0017,-0.0179,0.0090,-0.0032,0.0061,0.0007,-10.2722,2.8300,-46.1677,
6.7280,-0.0950,-0.0272,1.0175,0.0190,0.0024,0.0199,-0.0032,0.0061,0.0007,-10.2722,2.8300,-46.1677,
6.7780,-0.0949,-0.0268,1.0170,0.0190,0.0024,0.0199,-0.0032,0.0061,0.0007,-10.2722,2.8300,-46.1677,
6.7790,-0.0960,-0.0260,1.0169,0.0190,0.0024,0.0199,-0.0032,0.0061,0.0007,-10.2722,2.8300,-46.1677,
6.7790,-0.0960,-0.0260,1.0169,0.0190,0.0024,0.0199,-0.0053,-0.0009,-0.0023,-10.2722,2.8300,-46.1677,
6.7810,-0.0960,-0.0260,1.0169,0.0190,0.0024,0.0199,-0.0053,-0.0009,-0.0023,-10.2721,2.8259,-46.1788,
6.8060,-0.0960,-0.0260,1.0169,0.0190,0.0024,0.0199,-0.0035,-0.0070,-0.0017,-10.2721,2.8259,-46.1788,
6.8070,-0.0961,-0.0240,1.0181,0.0190,0.0024,0.0199,-0.0035,-0.0070,-0.0017,-10.2721,2.8259,-46.1788,
6.8080,-0.0974,-0.0233,1.0180,0.0190,0.0024,0.0199,-0.0035,-0.0070,-0.0017,-10.2721,2.8259,-46.1788,
6.8080,-0.0974,-0.0233,1.0180,0.0201,-0.0037,-0.0017,-0.0035,-0.0070,-0.0017,-10.2721,2.8259,-46.1788,
6.8420,-0.0974,-0.0233,1.0180,0.0201,-0.0037,-0.0017,-0.0035,-0.0070,-0.0017,-10.2984,2.8130,-46.1662,
6.8430,-0.0978,-0.0238,1.0191,0.0201,-0.0037,-0.0017,-0.0035,-0.0070,-0.0017,-10.2984,2.8130,-46.1662,
6.8660,-0.0978,-0.0238,1.0191,-0.0013,0.0122,-0.0110,-0.0035,-0.0070,-0.0017,-10.2984,2.8130,-46.1662,
6.8680,-0.0978,-0.0238,1.0191,-0.0013,0.0122,-0.0110,-0.0010,-0.0083,-0.0011,-10.2984,2.8130,-46.1662,
6.8680,-0.0975,-0.0246,1.0210,-0.0013,0.0122,-0.0110,-0.0010,-0.0083,-0.0011,-10.2984,2.8130,-46.1662,
6.8690,-0.0955,-0.0251,1.0213,-0.0013,0.0122,-0.0110,-0.0010,-0.0083,-0.0011,-10.2984,2.8130,-46.1662,
6.9110,-0.0955,-0.0251,1.0213,-0.0013,0.0122,-0.0110,0.0008,0.0076,-0.0002,-10.2984,2.8130,-46.1662,
6.9120,-0.0949,-0.0263,1.0219,-0.0013,0.0122,-0.0110,0.0008,0.0076,-0.0002,-10.2984,2.8130,-46.1662,
6.9120,-0.0937,-0.0262,1.0217,-0.0013,0.0122,-0.0110,0.0008,0.0076,-0.0002,-10.2984,2.8130,-46.1662,
6.9220,-0.0937,-0.0262,1.0217,-0.0013,0.0122,-0.0110,0.0008,0.0076,-0.0002,-10.3074,2.8078,-46.1633,
6.9430,-0.0937,-0.0262,1.0217,-0.0013,0.0122,-0.0110,0.0048,0.0082,-0.0005,-10.3074,2.8078,-46.1633,
6.9450,-0.0938,-0.0262,1.0192,-0.0013,0.0122,-0.0110,0.0048,0.0082,-0.0005,-10.3074,2.8078,-46.1633,
6.9450,-0.0954,-0.0260,1.0177,-0.0013,0.0122,-0.0110,0.0048,0.0082,-0.0005,-10.3074,2.8078,-46.1633,
6.9460,-0.0954,-0.0260,1.0177,0.0007,0.0077,0.0179,0.0048,0.0082,-0.0005,-10.3074,2.8078,-46.1633,
6.9780,-0.0954,-0.0260,1.0177,0.0007,0.0077,0.0179,0.0057,0.0091,-0.0017,-10.3074,2.8078,-46.1633,
6.9800,-0.0944,-0.0260,1.0181,0.0007,0.0077,0.0179,0.0057,0.0091,-0.0017,-10.3074,2.8078,-46.1633,
6.9820,-0.0944,-0.0260,1.0181,0.0007,0.0077,0.0179,0.0057,0.0091,-0.0017,-10.3139,2.8220,-46.1952,
7.0020,-0.0952,-0.0266,1.0178,0.0007,0.0077,0.0179,0.0057,0.0091,-0.0017,-10.3139,2.8220,-46.1952,
7.0030,-0.0952,-0.0266,1.0178,0.0007,0.0077,0.0179,0.0011,0.0140,-0.0002,-10.3139,2.8220,-46.1952,
7.0030,-0.0941,-0.0272,1.0191,0.0007,0.0077,0.0179,0.0011,0.0140,-0.0002,-10.3139,2.8220,-46.1952,
7.0040,-0.0941,-0.0272,1.0191,0.0283,-0.0060,0.0090,0.0011,0.0140,-0.0002,-10.3139,2.8220,-46.1952,
7.0430,-0.0941,-0.0272,1.0191,0.0283,-0.0060,0.0090,0.0011,0.0140,-0.0002,-10.3090,2.8162,-46.1813,
7.0450,-0.0958,-0.0265,1.0170,0.0283,-0.0060,0.0090,0.0011,0.0140,-0.0002,-10.3090,2.8162,-46.1813,
7.0450,-0.0958,-0.0265,1.0170,0.0283,-0.0060,0.0090,0.0008,-0.0119,-0.0002,-10.3090,2.8162,-46.1813,
7.0460,-0.0983,-0.0251,1.0157,0.0283,-0.0060,0.0090,0.0008,-0.0119,-0.0002,-10.3090,2.8162,-46.1813,
7.0800,-0.0983,-0.0251,1.0157,0.0127,-0.0085,-0.0069,0.0008,-0.0119,-0.0002,-10.3090,2.8162,-46.1813,
7.0810,-0.0983,-0.0251,1.0157,0.0127,-0.0085,-0.0069,-0.0032,-0.0168,0.0007,-10.3090,2.8162,-46.1813,
7.0820,-0.1005,-0.0249,1.0172,0.0127,-0.0085,-0.0069,-0.0032,-0.0168,0.0007,-10.3090,2.8162,-46.1813,
7.0820,-0.0952,-0.0248,1.0205,0.0127,-0.0085,-0.0069,-0.0032,-0.0168,0.0007,-10.3090,2.8162,-46.1813,
7.1110,-0.0865,-0.0239,1.0247,0.0127,-0.0085,-0.0069,-0.0032,-0.0168,0.0007,-10.3090,2.8162,-46.1813,
7.1210,-0.0865,-0.0239,1.0247,0.0127,-0.0085,-0.0069,-0.0032,-0.0168,0.0007,-10.3149,2.7954,-46.1787,
7.1220,-0.0865,-0.0239,1.0247,0.0127,-0.0085,-0.0069,0.0045,0.0519,0.0001,-10.3149,2.7954,-46.1787,
7.1230,-0.0861,-0.0229,1.0285,0.0127,-0.0085,-0.0069,0.0045,0.0519,0.0001,-10.3149,2.7954,-46.1787,
7.1390,-0.0861,-0.0229,1.0285,0.0106,-0.0001,-0.0092,0.0045,0.0519,0.0001,-10.3149,2.7954,-46.1787,
7.1400,-0.0983,-0.0217,1.0294,0.0106,-0.0001,-0.0092,0.0045,0.0519,0.0001,-10.3149,2.7954,-46.1787,
7.1770,-0.1053,-0.0242,1.0199,0.0106,-0.0001,-0.0092,0.0045,0.0519,0.0001,-10.3149,2.7954,-46.1787,
7.1780,-0.1043,-0.0261,1.0081,0.0106,-0.0001,-0.0092,0.0045,0.0519,0.0001,-10.3149,2.7954,-46.1787,
7.1790,-0.1043,-0.0261,1.0081,0.0106,-0.0001,-0.0092,0.0152,0.0140,-0.0054,-10.3149,2.7954,-46.1787,
7.1800,-0.1043,-0.0261,1.0081,0.0106,-0.0001,-0.0092,0.0152,0.0140,-0.0054,-10.3234,2.7951,-46.1598,
7.2170,-0.1043,-0.0261,1.0081,-0.0023,0.0203,0.0667,0.0152,0.0140,-0.0054,-10.3234,2.7951,-46.1598,
7.2190,-0.1043,-0.0261,1.0081,-0.0023,0.0203,0.0667,0.0011,-0.1115,-0.0041,-10.3234,2.7951,-46.1598,
7.2190,-0.1055,-0.0250,1.0017,-0.0023,0.0203,0.0667,0.0011,-0.1115,-0.0041,-10.3234,2.7951,-46.1598,
7.2190,-0.0977,-0.0255,1.0025,-0.0023,0.0203,0.0667,0.0011,-0.1115,-0.0041,-10.3234,2.7951,-46.1598,
7.2420,-0.0977,-0.0255,1.0025,-0.0023,0.0203,0.0667,0.0011,-0.1115,-0.0041,-10.3499,2.7858,-46.1468,
7.2430,-0.0977,-0.0255,1.0025,-0.0023,0.0203,0.0667,-0.0242,-0.0477,-0.0044,-10.3499,2.7858,-46.1468,
7.2430,-0.0859,-0.0260,1.0101,-0.0023,0.0203,0.0667,-0.0242,-0.0477,-0.0044,-10.3499,2.7858,-46.1468,
7.2770,-0.0795,-0.0263,1.0212,-0.0023,0.0203,0.0667,-0.0242,-0.0477,-0.0044,-10.3499,2.7858,-46.1468,
7.2780,-0.0795,-0.0263,1.0212,-0.0023,0.0203,0.0667,-0.0291,0.0907,0.0007,-10.3499,2.7858,-46.1468,
7.2790,-0.0820,-0.0265,1.0290,-0.0023,0.0203,0.0667,-0.0291,0.0907,0.0007,-10.3499,2.7858,-46.1468,
7.2790,-0.0820,-0.0265,1.0290,-0.0556,0.0139,-0.1183,-0.0291,0.0907,0.0007,-10.3499,2.7858,-46.1468,
7.3100,-0.0895,-0.0276,1.0301,-0.0556,0.0139,-0.1183,-0.0291,0.0907,0.0007,-10.3499,2.7858,-46.1468,
7.3210,-0.0993,-0.0289,1.0269,-0.0556,0.0139,-0.1183,-0.0291,0.0907,0.0007,-10.3499,2.7858,-46.1468,
7.3220,-0.0993,-0.0289,1.0269,-0.0556,0.0139,-0.1183,-0.0059,0.0617,0.0041,-10.3499,2.7858,-46.1468,
7.3230,-0.0993,-0.0289,1.0269,-0.0556,0.0139,-0.1183,-0.0059,0.0617,0.0041,-10.3249,2.8056,-46.1104,
7.3530,-0.1049,-0.0288,1.0227,-0.0556,0.0139,-0.1183,-0.0059,0.0617,0.0041,-10.3249,2.8056,-46.1104,
7.3550,-0.1049,-0.0288,1.0227,-0.0556,0.0139,-0.1183,0.0118,0.0094,0.0032,-10.3249,2.8056,-46.1104,
7.3550,-0.1021,-0.0271,1.0196,-0.0556,0.0139,-0.1183,0.0118,0.0094,0.0032,-10.3249,2.8056,-46.1104,
7.3560,-0.1021,-0.0271,1.0196,0.1397,0.0009,0.0323,0.0118,0.0094,0.0032,-10.3249,2.8056,-46.1104,
7.3770,-0.0982,-0.0259,1.0179,0.1397,0.0009,0.0323,0.0118,0.0094,0.0032,-10.3249,2.8056,-46.1104,
7.3830,-0.0982,-0.0259,1.0179,0.1397,0.0009,0.0323,0.0118,0.0094,0.0032,-10.2628,2.8217,-46.1456,
7.4110,-0.0977,-0.0248,1.0152,0.1397,0.0009,0.0323,0.0118,0.0094,0.0032,-10.2628,2.8217,-46.1456,
7.4120,-0.0967,-0.0250,1.0152,0.1397,0.0009,0.0323,0.0118,0.0094,0.0032,-10.2628,2.8217,-46.1456,
7.4130,-0.0967,-0.0250,1.0152,-0.0342,-0.0176,0.0493,0.0118,0.0094,0.0032,-10.2628,2.8217,-46.1456,
7.4130,-0.0967,-0.0250,1.0152,-0.0342,-0.0176,0.0493,0.0060,-0.0101,-0.0041,-10.2628,2.8217,-46.1456,
7.4420,-0.0959,-0.0256,1.0168,-0.0342,-0.0176,0.0493,0.0060,-0.0101,-0.0041,-10.2628,2.8217,-46.1456,
7.4430,-0.0959,-0.0256,1.0168,-0.0342,-0.0176,0.0493,-0.0071,-0.0119,-0.0023,-10.2628,2.8217,-46.1456,
7.4430,-0.0959,-0.0256,1.0168,-0.0342,-0.0176,0.0493,-0.0071,-0.0119,-0.0023,-10.2885,2.8164,-46.1493,
7.4910,-0.0959,-0.0256,1.0168,-0.0001,0.0136,-0.0246,-0.0071,-0.0119,-0.0023,-10.2885,2.8164,-46.1493,
7.4930,-0.0927,-0.0239,1.0190,-0.0001,0.0136,-0.0246,-0.0071,-0.0119,-0.0023,-10.2885,2.8164,-46.1493,
7.4930,-0.0920,-0.0253,1.0190,-0.0001,0.0136,-0.0246,-0.0071,-0.0119,-0.0023,-10.2885,2.8164,-46.1493,
7.4940,-0.0982,-0.0260,1.0189,-0.0001,0.0136,-0.0246,-0.0071,-0.0119,-0.0023,-10.2885,2.8164,-46.1493,
7.4950,-0.0982,-0.0260,1.0189,-0.0001,0.0136,-0.0246,-0.0077,0.0052,0.0007,-10.2885,2.8164,-46.1493,
7.5100,-0.1003,-0.0279,1.0167,-0.0001,0.0136,-0.0246,-0.0077,0.0052,0.0007,-10.2885,2.8164,-46.1493,
7.5120,-0.1003,-0.0279,1.0167,-0.0001,0.0136,-0.0246,0.0069,0.0006,-0.0005,-10.2885,2.8164,-46.1493,
7.5200,-0.1003,-0.0279,1.0167,-0.0001,0.0136,-0.0246,0.0069,0.0006,-0.0005,-10.2867,2.8215,-46.1246,
7.5480,-0.1003,-0.0279,1.0167,-0.0001,0.0136,-0.0246,0.0112,-0.0019,0.0017,-10.2867,2.8215,-46.1246,
7.5490,-0.0983,-0.0284,1.0150,-0.0001,0.0136,-0.0246,0.0112,-0.0019,0.0017,-10.2867,2.8215,-46.1246,
7.5490,-0.0955,-0.0276,1.0163,-0.0001,0.0136,-0.0246,0.0112,-0.0019,0.0017,-10.2867,2.8215,-46.1246,
7.5490,-0.0955,-0.0276,1.0163,0.0248,0.0082,0.0005,0.0112,-0.0019,0.0017,-10.2867,2.8215,-46.1246,
7.5770,-0.0939,-0.0262,1.0196,0.0248,0.0082,0.0005,0.0112,-0.0019,0.0017,-10.2867,2.8215,-46.1246,
7.5800,-0.0939,-0.0262,1.0196,0.0248,0.0082,0.0005,0.0112,-0.0019,0.0017,-10.2323,2.8411,-46.1267,
7.6260,-0.0939,-0.0262,1.0196,0.0057,-0.0172,-0.0194,0.0112,-0.0019,0.0017,-10.2323,2.8411,-46.1267,
7.6280,-0.0949,-0.0248,1.0210,0.0057,-0.0172,-0.0194,0.0112,-0.0019,0.0017,-10.2323,2.8411,-46.1267,
7.6290,-0.0953,-0.0250,1.0205,0.0057,-0.0172,-0.0194,0.0112,-0.0019,0.0017,-10.2323,2.8411,-46.1267,
7.6290,-0.0956,-0.0265,1.0172,0.0057,-0.0172,-0.0194,0.0112,-0.0019,0.0017,-10.2323,2.8411,-46.1267,
7.6300,-0.0956,-0.0265,1.0172,0.0057,-0.0172,-0.0194,0.0045,0.0211,-0.0029,-10.2323,2.8411,-46.1267,
7.6300,-0.0956,-0.0265,1.0172,0.0057,-0.0172,-0.0194,0.0023,0.0113,-0.0011,-10.2323,2.8411,-46.1267,
7.6410,-0.0956,-0.0265,1.0172,0.0057,-0.0172,-0.0194,0.0023,0.0113,-0.0011,-10.2447,2.8553,-46.1279,
7.6850,-0.0971,-0.0265,1.0168,0.0057,-0.0172,-0.0194,0.0023,0.0113,-0.0011,-10.2447,2.8553,-46.1279,
7.6870,-0.0971,-0.0265,1.0168,0.0057,-0.0172,-0.0194,0.0014,-0.0009,0.0026,-10.2447,2.8553,-46.1279,
7.6870,-0.0971,-0.0265,1.0168,0.0269,0.0016,0.0120,0.0014,-0.0009,0.0026,-10.2447,2.8553,-46.1279,
7.6880,-0.0966,-0.0268,1.0157,0.0269,0.0016,0.0120,0.0014,-0.0009,0.0026,-10.2447,2.8553,-46.1279,
7.6890,-0.0960,-0.0266,1.0159,0.0269,0.0016,0.0120,0.0014,-0.0009,0.0026,-10.2447,2.8553,-46.1279,
7.7110,-0.0958,-0.0265,1.0181,0.0269,0.0016,0.0120,0.0014,-0.0009,0.0026,-10.2447,2.8553,-46.1279,
7.7120,-0.0958,-0.0265,1.0181,0.0269,0.0016,0.0120,0.0026,0.0058,0.0001,-10.2447,2.8553,-46.1279,
7.7200,-0.0958,-0.0265,1.0181,0.0269,0.0016,0.0120,0.0026,0.0058,0.0001,-10.2470,2.8584,-46.1431,
7.7630,-0.0958,-0.0265,1.0181,0.0160,-0.0100,-0.0175,0.0026,0.0058,0.0001,-10.2470,2.8584,-46.1431,
7.7650,-0.0971,-0.0251,1.0180,0.0160,-0.0100,-0.0175,0.0026,0.0058,0.0001,-10.2470,2.8584,-46.1431,
7.7660,-0.0978,-0.0238,1.0191,0.0160,-0.0100,-0.0175,0.0026,0.0058,0.0001,-10.2470,2.8584,-46.1431,
7.7660,-0.0989,-0.0243,1.0178,0.0160,-0.0100,-0.0175,0.0026,0.0058,0.0001,-10.2470,2.8584,-46.1431,
7.7670,-0.0989,-0.0243,1.0178,0.0160,-0.0100,-0.0175,0.0039,0.0091,-0.0005,-10.2470,2.8584,-46.1431,
7.7810,-0.0989,-0.0243,1.0178,0.0160,-0.0100,-0.0175,0.0039,0.0091,-0.0005,-10.2381,2.8623,-46.1526,
7.8220,-0.0989,-0.0243,1.0178,0.0160,-0.0100,-0.0175,-0.0013,0.0012,0.0007,-10.2381,2.8623,-46.1526,
7.8230,-0.0977,-0.0242,1.0199,0.0160,-0.0100,-0.0175,-0.0013,0.0012,0.0007,-10.2381,2.8623,-46.1526,
7.8230,-0.0992,-0.0229,1.0189,0.0160,-0.0100,-0.0175,-0.0013,0.0012,0.0007,-10.2381,2.8623,-46.1526,
7.8240,-0.0986,-0.0242,1.0188,0.0160,-0.0100,-0.0175,-0.0013,0.0012,0.0007,-10.2381,2.8623,-46.1526,
7.8240,-0.0986,-0.0242,1.0188,0.0160,-0.0100,-0.0175,-0.0041,-0.0012,-0.0026,-10.2381,2.8623,-46.1526,
7.8240,-0.0986,-0.0242,1.0188,0.0042,0.0117,0.0009,-0.0041,-0.0012,-0.0026,-10.2381,2.8623,-46.1526,
7.8420,-0.0986,-0.0242,1.0188,0.0042,0.0117,0.0009,-0.0041,-0.0012,-0.0026,-10.2702,2.8194,-46.1718,
7.8430,-0.0969,-0.0259,1.0194,0.0042,0.0117,0.0009,-0.0041,-0.0012,-0.0026,-10.2702,2.8194,-46.1718,
7.8740,-0.0958,-0.0260,1.0173,0.0042,0.0117,0.0009,-0.0041,-0.0012,-0.0026,-10.2702,2.8194,-46.1718,
7.8750,-0.0958,-0.0260,1.0173,0.0042,0.0117,0.0009,0.0008,0.0067,0.0004,-10.2702,2.8194,-46.1718,
7.9000,-0.0958,-0.0260,1.0173,0.0056,0.0140,0.0098,0.0008,0.0067,0.0004,-10.2702,2.8194,-46.1718,
7.9020,-0.0958,-0.0265,1.0170,0.0056,0.0140,0.0098,0.0008,0.0067,0.0004,-10.2702,2.8194,-46.1718,
7.9020,-0.0963,-0.0251,1.0161,0.0056,0.0140,0.0098,0.0008,0.0067,0.0004,-10.2702,2.8194,-46.1718,
7.9030,-0.0963,-0.0251,1.0161,0.0056,0.0140,0.0098,0.0033,0.0180,-0.0005,-10.2702,2.8194,-46.1718,
7.9220,-0.0975,-0.0260,1.0175,0.0056,0.0140,0.0098,0.0033,0.0180,-0.0005,-10.2702,2.8194,-46.1718,
7.9230,-0.0975,-0.0260,1.0175,0.0056,0.0140,0.0098,0.0033,0.0180,-0.0005,-10.3324,2.7903,-46.1607,
7.9580,-0.0977,-0.0263,1.0179,0.0056,0.0140,0.0098,0.0033,0.0180,-0.0005,-10.3324,2.7903,-46.1607,
7.9590,-0.0977,-0.0263,1.0179,0.0056,0.0140,0.0098,0.0014,0.0134,0.0001,-10.3324,2.7903,-46.1607,
7.9590,-0.0977,-0.0263,1.0179,0.0266,-0.0059,-0.0098,0.0014,0.0134,0.0001,-10.3324,2.7903,-46.1607,
7.9600,-0.0993,-0.0274,1.0170,0.0266,-0.0059,-0.0098,0.0014,0.0134,0.0001,-10.3324,2.7903,-46.1607,
7.9780,-0.1009,-0.0255,1.0142,0.0266,-0.0059,-0.0098,0.0014,0.0134,0.0001,-10.3324,2.7903,-46.1607,
7.9790,-0.1009,-0.0255,1.0142,0.0266,-0.0059,-0.0098,0.0057,-0.0193,0.0004,-10.3324,2.7903,-46.1607,
7.9810,-0.1009,-0.0255,1.0142,0.0266,-0.0059,-0.0098,0.0057,-0.0193,0.0004,-10.2940,2.7876,-46.1599,
8.0390,-0.1009,-0.0255,1.0142,-0.0088,-0.0117,-0.0098,0.0057,-0.0193,0.0004,-10.2940,2.7876,-46.1599,
8.0410,-0.1009,-0.0255,1.0142,-0.0088,-0.0117,-0.0098,0.0014,-0.0306,0.0001,-10.2940,2.7876,-46.1599,
8.0420,-0.1010,-0.0257,1.0153,-0.0088,-0.0117,-0.0098,0.0014,-0.0306,0.0001,-10.2940,2.7876,-46.1599,
8.0430,-0.0971,-0.0263,1.0184,-0.0088,-0.0117,-0.0098,0.0014,-0.0306,0.0001,-10.2940,2.7876,-46.1599,
8.0450,-0.0877,-0.0259,1.0221,-0.0088,-0.0117,-0.0098,0.0014,-0.0306,0.0001,-10.2940,2.7876,-46.1599,
8.0470,-0.0877,-0.0259,1.0221,-0.0088,-0.0117,-0.0098,0.0014,-0.0306,0.0001,-10.3410,2.7898,-46.1910,
8.0960,-0.0877,-0.0259,1.0221,0.0327,-0.0136,-0.0002,0.0014,-0.0306,0.0001,-10.3410,2.7898,-46.1910,
8.0990,-0.0858,-0.0220,1.0224,0.0327,-0.0136,-0.0002,0.0014,-0.0306,0.0001,-10.3410,2.7898,-46.1910,
8.1000,-0.0858,-0.0220,1.0224,0.0327,-0.0136,-0.0002,0.0088,0.0397,-0.0014,-10.3410,2.7898,-46.1910,
8.1010,-0.0961,-0.0194,1.0236,0.0327,-0.0136,-0.0002,0.0088,0.0397,-0.0014,-10.3410,2.7898,-46.1910,
8.1020,-0.0961,-0.0194,1.0236,0.0327,-0.0136,-0.0002,0.0133,0.0424,-0.0063,-10.3410,2.7898,-46.1910,
8.1030,-0.1069,-0.0220,1.0211,0.0327,-0.0136,-0.0002,0.0133,0.0424,-0.0063,-10.3410,2.7898,-46.1910,
8.1220,-0.1069,-0.0220,1.0211,0.0327,-0.0136,-0.0002,0.0133,0.0424,-0.0063,-10.4170,2.7711,-46.1817,
8.1230,-0.1097,-0.0257,1.0117,0.0327,-0.0136,-0.0002,0.0133,0.0424,-0.0063,-10.4170,2.7711,-46.1817,
8.1730,-0.1088,-0.0263,1.0054,0.0327,-0.0136,-0.0002,0.0133,0.0424,-0.0063,-10.4170,2.7711,-46.1817,
8.1760,-0.1088,-0.0263,1.0054,0.0327,-0.0136,-0.0002,0.0026,-0.1014,-0.0020,-10.4170,2.7711,-46.1817,
8.1770,-0.1088,-0.0263,1.0054,0.0327,-0.0136,-0.0002,-0.0230,-0.0700,-0.0023,-10.4170,2.7711,-46.1817,
8.1770,-0.1016,-0.0254,1.0036,0.0327,-0.0136,-0.0002,-0.0230,-0.0700,-0.0023,-10.4170,2.7711,-46.1817,
8.1780,-0.0888,-0.0251,1.0103,0.0327,-0.0136,-0.0002,-0.0230,-0.0700,-0.0023,-10.4170,2.7711,-46.1817,
8.1790,-0.0888,-0.0251,1.0103,-0.0421,0.0334,0.0231,-0.0230,-0.0700,-0.0023,-10.4170,2.7711,-46.1817,
8.1820,-0.0888,-0.0251,1.0103,-0.0421,0.0334,0.0231,-0.0230,-0.0700,-0.0023,-10.4644,2.7784,-46.1732,
8.2320,-0.0888,-0.0251,1.0103,-0.0421,0.0334,0.0231,-0.0325,0.0855,-0.0017,-10.4644,2.7784,-46.1732,
8.2330,-0.0794,-0.0242,1.0201,-0.0421,0.0334,0.0231,-0.0325,0.0855,-0.0017,-10.4644,2.7784,-46.1732,
8.2340,-0.0798,-0.0267,1.0284,-0.0421,0.0334,0.0231,-0.0325,0.0855,-0.0017,-10.4644,2.7784,-46.1732,
8.2350,-0.0884,-0.0270,1.0300,-0.0421,0.0334,0.0231,-0.0325,0.0855,-0.0017,-10.4644,2.7784,-46.1732,
8.2360,-0.0884,-0.0270,1.0300,-0.0106,0.0086,-0.0976,-0.0325,0.0855,-0.0017,-10.4644,2.7784,-46.1732,
8.2440,-0.0884,-0.0270,1.0300,-0.0106,0.0086,-0.0976,-0.0325,0.0855,-0.0017,-10.4790,2.8011,-46.1282,
8.3110,-0.0884,-0.0270,1.0300,-0.0106,0.0086,-0.0976,-0.0108,0.0846,0.0035,-10.4790,2.8011,-46.1282,
8.3130,-0.0997,-0.0277,1.0273,-0.0106,0.0086,-0.0976,-0.0108,0.0846,0.0035,-10.4790,2.8011,-46.1282,
8.3140,-0.0997,-0.0277,1.0273,-0.0106,0.0086,-0.0976,0.0063,0.0021,0.0050,-10.4790,2.8011,-46.1282,
8.3140,-0.1063,-0.0289,1.0239,-0.0106,0.0086,-0.0976,0.0063,0.0021,0.0050,-10.4790,2.8011,-46.1282,
8.3150,-0.1063,-0.0272,1.0188,-0.0106,0.0086,-0.0976,0.0063,0.0021,0.0050,-10.4790,2.8011,-46.1282,
8.3160,-0.1030,-0.0251,1.0163,-0.0106,0.0086,-0.0976,0.0063,0.0021,0.0050,-10.4790,2.8011,-46.1282,
8.3160,-0.1030,-0.0251,1.0163,0.1362,0.0012,0.0837,0.0063,0.0021,0.0050,-10.4790,2.8011,-46.1282,
8.3220,-0.1030,-0.0251,1.0163,0.1362,0.0012,0.0837,0.0063,0.0021,0.0050,-10.4743,2.7993,-46.1223,
8.3680,-0.1030,-0.0251,1.0163,0.1362,0.0012,0.0837,0.0054,-0.0260,-0.0026,-10.4743,2.7993,-46.1223,
8.3690,-0.1000,-0.0239,1.0152,0.1362,0.0012,0.0837,0.0054,-0.0260,-0.0026,-10.4743,2.7993,-46.1223,
8.3700,-0.0967,-0.0249,1.0155,0.1362,0.0012,0.0837,0.0054,-0.0260,-0.0026,-10.4743,2.7993,-46.1223,
8.3700,-0.0954,-0.0267,1.0194,0.1362,0.0012,0.0837,0.0054,-0.0260,-0.0026,-10.4743,2.7993,-46.1223,
8.3700,-0.0954,-0.0267,1.0194,0.1362,0.0012,0.0837,-0.0053,-0.0067,-0.0020,-10.4743,2.7993,-46.1223,
8.3710,-0.0954,-0.0267,1.0194,-0.0604,-0.0067,0.0222,-0.0053,-0.0067,-0.0020,-10.4743,2.7993,-46.1223,
8.3810,-0.0954,-0.0267,1.0194,-0.0604,-0.0067,0.0222,-0.0053,-0.0067,-0.0020,-10.4544,2.8257,-46.1100,
8.4410,-0.0943,-0.0273,1.0221,-0.0604,-0.0067,0.0222,-0.0053,-0.0067,-0.0020,-10.4544,2.8257,-46.1100,
8.4420,-0.0963,-0.0248,1.0234,-0.0604,-0.0067,0.0222,-0.0053,-0.0067,-0.0020,-10.4544,2.8257,-46.1100,
8.4420,-0.0998,-0.0265,1.0238,-0.0604,-0.0067,0.0222,-0.0053,-0.0067,-0.0020,-10.4544,2.8257,-46.1100,
8.4430,-0.0998,-0.0265,1.0238,-0.0604,-0.0067,0.0222,-0.0080,0.0137,-0.0011,-10.4544,2.8257,-46.1100,
8.4430,-0.0998,-0.0265,1.0238,-0.0604,-0.0067,0.0222,-0.0080,0.0137,-0.0011,-10.4285,2.8371,-46.1259,
8.4450,-0.0998,-0.0265,1.0238,-0.0604,-0.0067,0.0222,0.0063,0.0085,-0.0005,-10.4285,2.8371,-46.1259,
8.4460,-0.1021,-0.0257,1.0202,-0.0604,-0.0067,0.0222,0.0063,0.0085,-0.0005,-10.4285,2.8371,-46.1259,
8.4460,-0.1021,-0.0257,1.0202,0.0214,0.0093,-0.0075,0.0063,0.0085,-0.0005,-10.4285,2.8371,-46.1259,
8.5070,-0.1021,-0.0257,1.0202,0.0214,0.0093,-0.0075,0.0118,-0.0061,0.0004,-10.4285,2.8371,-46.1259,
8.5100,-0.1011,-0.0262,1.0172,0.0214,0.0093,-0.0075,0.0118,-0.0061,0.0004,-10.4285,2.8371,-46.1259,
8.5110,-0.0982,-0.0267,1.0163,0.0214,0.0093,-0.0075,0.0118,-0.0061,0.0004,-10.4285,2.8371,-46.1259,
8.5120,-0.0954,-0.0259,1.0178,0.0214,0.0093,-0.0075,0.0118,-0.0061,0.0004,-10.4285,2.8371,-46.1259,
8.5140,-0.0954,-0.0259,1.0178,0.0060,-0.0008,0.0381,0.0118,-0.0061,0.0004,-10.4285,2.8371,-46.1259,
8.5220,-0.0954,-0.0259,1.0178,0.0060,-0.0008,0.0381,0.0118,-0.0061,0.0004,-10.3754,2.8461,-46.1153,
8.5790,-0.0953,-0.0255,1.0203,0.0060,-0.0008,0.0381,0.0118,-0.0061,0.0004,-10.3754,2.8461,-46.1153,
8.5810,-0.0958,-0.0260,1.0202,0.0060,-0.0008,0.0381,0.0118,-0.0061,0.0004,-10.3754,2.8461,-46.1153,
8.5820,-0.0976,-0.0265,1.0205,0.0060,-0.0008,0.0381,0.0118,-0.0061,0.0004,-10.3754,2.8461,-46.1153,
8.5820,-0.0976,-0.0265,1.0205,0.0060,-0.0008,0.0381,0.0045,0.0177,-0.0020,-10.3754,2.8461,-46.1153,
8.5830,-0.0976,-0.0265,1.0205,0.0060,-0.0008,0.0381,0.0002,0.0174,-0.0011,-10.3754,2.8461,-46.1153,
8.5840,-0.0976,-0.0265,1.0205,0.0060,-0.0008,0.0381,0.0002,0.0174,-0.0011,-10.3421,2.8260,-46.1029,
8.5850,-0.0996,-0.0263,1.0186,0.0060,-0.0008,0.0381,0.0002,0.0174,-0.0011,-10.3421,2.8260,-46.1029,
8.5860,-0.0996,-0.0263,1.0186,0.0224,-0.0030,-0.0082,0.0002,0.0174,-0.0011,-10.3421,2.8260,-46.1029,
8.6430,-0.0996,-0.0263,1.0186,0.0224,-0.0030,-0.0082,-0.0019,-0.0006,0.0007,-10.3421,2.8260,-46.1029,
8.6450,-0.1004,-0.0267,1.0180,0.0224,-0.0030,-0.0082,-0.0019,-0.0006,0.0007,-10.3421,2.8260,-46.1029,
8.6450,-0.0993,-0.0274,1.0173,0.0224,-0.0030,-0.0082,-0.0019,-0.0006,0.0007,-10.3421,2.8260,-46.1029,
8.6460,-0.0981,-0.0271,1.0163,0.0224,-0.0030,-0.0082,-0.0019,-0.0006,0.0007,-10.3421,2.8260,-46.1029,
8.6460,-0.0981,-0.0271,1.0163,0.0224,-0.0030,-0.0082,0.0002,-0.0107,0.0001,-10.3421,2.8260,-46.1029,
8.6470,-0.0981,-0.0271,1.0163,0.0224,-0.0030,-0.0082,0.0002,-0.0107,0.0001,-10.3011,2.8419,-46.1109,
8.6480,-0.0981,-0.0271,1.0163,0.0173,-0.0022,0.0120,0.0002,-0.0107,0.0001,-10.3011,2.8419,-46.1109,
8.7130,-0.0981,-0.0271,1.0163,0.0173,-0.0022,0.0120,-0.0001,-0.0025,-0.0017,-10.3011,2.8419,-46.1109,
8.7140,-0.0980,-0.0260,1.0164,0.0173,-0.0022,0.0120,-0.0001,-0.0025,-0.0017,-10.3011,2.8419,-46.1109,
8.7150,-0.0991,-0.0250,1.0167,0.0173,-0.0022,0.0120,-0.0001,-0.0025,-0.0017,-10.3011,2.8419,-46.1109,
8.7150,-0.0987,-0.0239,1.0189,0.0173,-0.0022,0.0120,-0.0001,-0.0025,-0.0017,-10.3011,2.8419,-46.1109,
8.7230,-0.0994,-0.0260,1.0205,0.0173,-0.0022,0.0120,-0.0001,-0.0025,-0.0017,-10.3011,2.8419,-46.1109,
8.7240,-0.0994,-0.0260,1.0205,0.0173,-0.0022,0.0120,-0.0050,0.0076,-0.0002,-10.3011,2.8419,-46.1109,
8.7250,-0.0994,-0.0260,1.0205,0.0023,-0.0068,-0.0140,-0.0050,0.0076,-0.0002,-10.3011,2.8419,-46.1109,
8.7250,-0.0994,-0.0260,1.0205,0.0023,-0.0068,-0.0140,-0.0050,0.0076,-0.0002,-10.2685,2.8338,-46.1227,
8.7800,-0.0994,-0.0260,1.0205,0.0023,-0.0068,-0.0140,-0.0050,0.0009,-0.0017,-10.2685,2.8338,-46.1227,
8.7820,-0.1011,-0.0242,1.0214,0.0023,-0.0068,-0.0140,-0.0050,0.0009,-0.0017,-10.2685,2.8338,-46.1227,
8.7820,-0.0986,-0.0251,1.0202,0.0023,-0.0068,-0.0140,-0.0050,0.0009,-0.0017,-10.2685,2.8338,-46.1227,
8.7830,-0.0976,-0.0246,1.0194,0.0023,-0.0068,-0.0140,-0.0050,0.0009,-0.0017,-10.2685,2.8338,-46.1227,
8.7830,-0.0976,-0.0246,1.0194,0.0058,0.0115,0.0007,-0.0050,0.0009,-0.0017,-10.2685,2.8338,-46.1227,
8.7840,-0.0976,-0.0246,1.0194,0.0058,0.0115,0.0007,-0.0050,0.0009,-0.0017,-10.2608,2.8211,-46.1779,
8.8420,-0.0976,-0.0246,1.0194,0.0058,0.0115,0.0007,-0.0050,0.0009,-0.0017,-10.2184,2.8221,-46.1690,
8.8450,-0.0955,-0.0249,1.0175,0.0058,0.0115,0.0007,-0.0050,0.0009,-0.0017,-10.2184,2.8221,-46.1690,
8.8460,-0.0964,-0.0254,1.0177,0.0058,0.0115,0.0007,-0.0050,0.0009,-0.0017,-10.2184,2.8221,-46.1690,
8.8460,-0.0980,-0.0256,1.0179,0.0058,0.0115,0.0007,-0.0050,0.0009,-0.0017,-10.2184,2.8221,-46.1690,
8.8470,-0.0980,-0.0256,1.0179,0.0058,0.0115,0.0007,-0.0001,0.0024,-0.0014,-10.2184,2.8221,-46.1690,
8.8470,-0.0980,-0.0256,1.0179,0.0058,0.0115,0.0007,0.0017,0.0174,-0.0017,-10.2184,2.8221,-46.1690,
8.8550,-0.0983,-0.0272,1.0180,0.0058,0.0115,0.0007,0.0017,0.0174,-0.0017,-10.2184,2.8221,-46.1690,
8.8570,-0.0983,-0.0272,1.0180,0.0170,0.0130,0.0140,0.0017,0.0174,-0.0017,-10.2184,2.8221,-46.1690,
8.8780,-0.0997,-0.0274,1.0188,0.0170,0.0130,0.0140,0.0017,0.0174,-0.0017,-10.2184,2.8221,-46.1690,
8.8790,-0.0997,-0.0274,1.0188,0.0170,0.0130,0.0140,0.0011,0.0101,0.0023,-10.2184,2.8221,-46.1690,
8.9110,-0.1008,-0.0271,1.0164,0.0170,0.0130,0.0140,0.0011,0.0101,0.0023,-10.2184,2.8221,-46.1690,
8.9140,-0.1032,-0.0259,1.0174,0.0170,0.0130,0.0140,0.0011,0.0101,0.0023,-10.2184,2.8221,-46.1690,
8.9140,-0.1032,-0.0259,1.0174,0.0170,0.0130,0.0140,-0.0041,-0.0214,0.0007,-10.2184,2.8221,-46.1690,
8.9140,-0.1032,-0.0259,1.0174,0.0172,0.0037,-0.0063,-0.0041,-0.0214,0.0007,-10.2184,2.8221,-46.1690,
8.9210,-0.1032,-0.0259,1.0174,0.0172,0.0037,-0.0063,-0.0041,-0.0214,0.0007,-10.1957,2.8151,-46.1455,
8.9800,-0.1004,-0.0250,1.0213,0.0172,0.0037,-0.0063,-0.0041,-0.0214,0.0007,-10.1957,2.8151,-46.1455,
8.9820,-0.0938,-0.0266,1.0244,0.0172,0.0037,-0.0063,-0.0041,-0.0214,0.0007,-10.1957,2.8151,-46.1455,
8.9820,-0.0880,-0.0262,1.0234,0.0172,0.0037,-0.0063,-0.0041,-0.0214,0.0007,-10.1957,2.8151,-46.1455,
8.9830,-0.0880,-0.0262,1.0234,0.0172,0.0037,-0.0063,-0.0117,-0.0037,0.0023,-10.1957,2.8151,-46.1455,
8.9840,-0.0880,-0.0262,1.0234,0.0172,0.0037,-0.0063,-0.0117,-0.0037,0.0023,-10.2342,2.8169,-46.1302,
8.9920,-0.0880,-0.0262,1.0234,0.0172,0.0037,-0.0063,0.0048,0.0498,0.0007,-10.2342,2.8169,-46.1302,
8.9930,-0.0938,-0.0220,1.0217,0.0172,0.0037,-0.0063,0.0048,0.0498,0.0007,-10.2342,2.8169,-46.1302,
8.9940,-0.0938,-0.0220,1.0217,-0.0008,-0.0016,-0.0032,0.0048,0.0498,0.0007,-10.2342,2.8169,-46.1302,
9.0430,-0.0938,-0.0220,1.0217,-0.0008,-0.0016,-0.0032,0.0048,0.0498,0.0007,-10.2697,2.8197,-46.1164,
9.0450,-0.0938,-0.0220,1.0217,-0.0008,-0.0016,-0.0032,0.0051,-0.0245,-0.0066,-10.2697,2.8197,-46.1164,
9.0460,-0.1035,-0.0229,1.0191,-0.0008,-0.0016,-0.0032,0.0051,-0.0245,-0.0066,-10.2697,2.8197,-46.1164,
9.0460,-0.1096,-0.0263,1.0129,-0.0008,-0.0016,-0.0032,0.0051,-0.0245,-0.0066,-10.2697,2.8197,-46.1164,
9.0520,-0.1105,-0.0278,1.0064,-0.0008,-0.0016,-0.0032,0.0051,-0.0245,-0.0066,-10.2697,2.8197,-46.1164,
9.0520,-0.1105,-0.0278,1.0064,0.0279,0.0123,0.0377,0.0051,-0.0245,-0.0066,-10.2697,2.8197,-46.1164,
9.1120,-0.1051,-0.0274,1.0052,0.0279,0.0123,0.0377,0.0051,-0.0245,-0.0066,-10.2697,2.8197,-46.1164,
9.1140,-0.1051,-0.0274,1.0052,0.0279,0.0123,0.0377,-0.0062,-0.1298,-0.0066,-10.2697,2.8197,-46.1164,
9.1150,-0.1051,-0.0274,1.0052,0.0279,0.0123,0.0377,-0.0303,-0.0125,-0.0026,-10.2697,2.8197,-46.1164,
9.1150,-0.0942,-0.0267,1.0095,0.0279,0.0123,0.0377,-0.0303,-0.0125,-0.0026,-10.2697,2.8197,-46.1164,
9.1160,-0.0818,-0.0270,1.0194,0.0279,0.0123,0.0377,-0.0303,-0.0125,-0.0026,-10.2697,2.8197,-46.1164,
9.1220,-0.0818,-0.0270,1.0194,0.0279,0.0123,0.0377,-0.0303,-0.0125,-0.0026,-10.3106,2.8339,-46.1155,
9.1330,-0.0818,-0.0270,1.0194,-0.1017,0.0190,-0.0649,-0.0303,-0.0125,-0.0026,-10.3106,2.8339,-46.1155,
9.1340,-0.0789,-0.0296,1.0299,-0.1017,0.0190,-0.0649,-0.0303,-0.0125,-0.0026,-10.3106,2.8339,-46.1155,
9.1770,-0.0859,-0.0282,1.0323,-0.1017,0.0190,-0.0649,-0.0303,-0.0125,-0.0026,-10.3106,2.8339,-46.1155,
9.1780,-0.0963,-0.0290,1.0279,-0.1017,0.0190,-0.0649,-0.0303,-0.0125,-0.0026,-10.3106,2.8339,-46.1155,
9.1790,-0.0963,-0.0290,1.0279,-0.1017,0.0190,-0.0649,-0.0227,0.0999,-0.0011,-10.3106,2.8339,-46.1155,
9.1820,-0.0963,-0.0290,1.0279,-0.1017,0.0190,-0.0649,-0.0227,0.0999,-0.0011,-10.3204,2.8314,-46.1300,
9.1880,-0.1035,-0.0301,1.0221,-0.1017,0.0190,-0.0649,-0.0227,0.0999,-0.0011,-10.3204,2.8314,-46.1300,
9.1890,-0.1035,-0.0301,1.0221,-0.1017,0.0190,-0.0649,0.0036,0.0415,0.0038,-10.3204,2.8314,-46.1300,
9.1900,-0.1035,-0.0301,1.0221,0.1181,0.0021,-0.0032,0.0036,0.0415,0.0038,-10.3204,2.8314,-46.1300,
9.2430,-0.1051,-0.0309,1.0183,0.1181,0.0021,-0.0032,0.0036,0.0415,0.0038,-10.3204,2.8314,-46.1300,
9.2450,-0.1051,-0.0309,1.0183,0.1181,0.0021,-0.0032,0.0100,-0.0025,0.0029,-10.3204,2.8314,-46.1300,
9.2460,-0.1022,-0.0283,1.0174,0.1181,0.0021,-0.0032,0.0100,-0.0025,0.0029,-10.3204,2.8314,-46.1300,
9.2470,-0.1022,-0.0283,1.0174,0.1181,0.0021,-0.0032,0.0100,-0.0025,0.0029,-10.2950,2.8568,-46.1591,
9.2670,-0.0994,-0.0256,1.0175,0.1181,0.0021,-0.0032,0.0100,-0.0025,0.0029,-10.2950,2.8568,-46.1591,
9.2680,-0.0994,-0.0256,1.0175,0.0209,-0.0165,0.0713,0.0100,-0.0025,0.0029,-10.2950,2.8568,-46.1591,
9.2690,-0.0994,-0.0256,1.0175,0.0209,-0.0165,0.0713,0.0020,-0.0116,-0.0044,-10.2950,2.8568,-46.1591,
9.2690,-0.0987,-0.0253,1.0167,0.0209,-0.0165,0.0713,0.0020,-0.0116,-0.0044,-10.2950,2.8568,-46.1591,
9.3100,-0.0975,-0.0253,1.0183,0.0209,-0.0165,0.0713,0.0020,-0.0116,-0.0044,-10.2950,2.8568,-46.1591,
9.3110,-0.0975,-0.0253,1.0183,0.0209,-0.0165,0.0713,-0.0074,-0.0086,0.0001,-10.2950,2.8568,-46.1591,
9.3120,-0.0959,-0.0263,1.0202,0.0209,-0.0165,0.0713,-0.0074,-0.0086,0.0001,-10.2950,2.8568,-46.1591,
9.3230,-0.0959,-0.0263,1.0202,0.0209,-0.0165,0.0713,-0.0074,-0.0086,0.0001,-10.2571,2.8562,-46.1343,
9.3250,-0.0954,-0.0255,1.0234,0.0209,-0.0165,0.0713,-0.0074,-0.0086,0.0001,-10.2571,2.8562,-46.1343,
9.3260,-0.0954,-0.0255,1.0234,-0.0192,0.0105,-0.0134,-0.0074,-0.0086,0.0001,-10.2571,2.8562,-46.1343,
9.3770,-0.0970,-0.0271,1.0229,-0.0192,0.0105,-0.0134,-0.0074,-0.0086,0.0001,-10.2571,2.8562,-46.1343,
9.3790,-0.0970,-0.0271,1.0229,-0.0192,0.0105,-0.0134,-0.0007,0.0101,0.0007,-10.2571,2.8562,-46.1343,
9.3790,-0.1002,-0.0298,1.0205,-0.0192,0.0105,-0.0134,-0.0007,0.0101,0.0007,-10.2571,2.8562,-46.1343,
9.3820,-0.1002,-0.0298,1.0205,-0.0192,0.0105,-0.0134,-0.0007,0.0101,0.0007,-10.2365,2.8789,-46.1300,
9.4030,-0.1016,-0.0299,1.0163,-0.0192,0.0105,-0.0134,-0.0007,0.0101,0.0007,-10.2365,2.8789,-46.1300,
9.4040,-0.1016,-0.0299,1.0163,-0.0192,0.0105,-0.0134,0.0143,0.0049,-0.0008,-10.2365,2.8789,-46.1300,
9.4050,-0.0994,-0.0287,1.0158,-0.0192,0.0105,-0.0134,0.0143,0.0049,-0.0008,-10.2365,2.8789,-46.1300,
9.4050,-0.0994,-0.0287,1.0158,0.0271,0.0120,0.0205,0.0143,0.0049,-0.0008,-10.2365,2.8789,-46.1300,
9.4410,-0.0972,-0.0272,1.0181,0.0271,0.0120,0.0205,0.0143,0.0049,-0.0008,-10.2365,2.8789,-46.1300,
9.4420,-0.0972,-0.0272,1.0181,0.0271,0.0120,0.0205,0.0121,0.0174,0.0007,-10.2365,2.8789,-46.1300,
9.4430,-0.0960,-0.0249,1.0212,0.0271,0.0120,0.0205,0.0121,0.0174,0.0007,-10.2365,2.8789,-46.1300,
9.4440,-0.0960,-0.0249,1.0212,0.0271,0.0120,0.0205,0.0121,0.0174,0.0007,-10.1997,2.8913,-46.1008,
9.4610,-0.0960,-0.0249,1.0212,0.0271,0.0120,0.0205,0.0069,0.0284,-0.0017,-10.1997,2.8913,-46.1008,
9.4620,-0.0981,-0.0246,1.0223,0.0271,0.0120,0.0205,0.0069,0.0284,-0.0017,-10.1997,2.8913,-46.1008,
9.4620,-0.0981,-0.0246,1.0223,0.0075,-0.0243,-0.0047,0.0069,0.0284,-0.0017,-10.1997,2.8913,-46.1008,
9.5110,-0.0976,-0.0266,1.0199,0.0075,-0.0243,-0.0047,0.0069,0.0284,-0.0017,-10.1997,2.8913,-46.1008,
9.5130,-0.0976,-0.0266,1.0199,0.0075,-0.0243,-0.0047,0.0017,0.0098,-0.0014,-10.1997,2.8913,-46.1008,
9.5140,-0.0982,-0.0279,1.0197,0.0075,-0.0243,-0.0047,0.0017,0.0098,-0.0014,-10.1997,2.8913,-46.1008,
9.5250,-0.1010,-0.0277,1.0168,0.0075,-0.0243,-0.0047,0.0017,0.0098,-0.0014,-10.1997,2.8913,-46.1008,
9.5260,-0.1010,-0.0277,1.0168,0.0075,-0.0243,-0.0047,0.0017,0.0098,-0.0014,-10.1073,2.8815,-46.0883,
9.5380,-0.0998,-0.0270,1.0164,0.0075,-0.0243,-0.0047,0.0017,0.0098,-0.0014,-10.1073,2.8815,-46.0883,
9.5390,-0.0998,-0.0270,1.0164,0.0075,-0.0243,-0.0047,0.0008,-0.0000,-0.0002,-10.1073,2.8815,-46.0883,
9.5400,-0.0998,-0.0270,1.0164,0.0334,0.0101,0.0158,0.0008,-0.0000,-0.0002,-10.1073,2.8815,-46.0883,
9.5780,-0.0985,-0.0266,1.0164,0.0334,0.0101,0.0158,0.0008,-0.0000,-0.0002,-10.1073,2.8815,-46.0883,
9.5790,-0.0985,-0.0266,1.0164,0.0334,0.0101,0.0158,0.0036,0.0009,-0.0014,-10.1073,2.8815,-46.0883,
9.5800,-0.0988,-0.0265,1.0161,0.0334,0.0101,0.0158,0.0036,0.0009,-0.0014,-10.1073,2.8815,-46.0883,
9.5800,-0.0988,-0.0265,1.0161,0.0334,0.0101,0.0158,0.0036,0.0009,-0.0014,-10.1056,2.8793,-46.1120,
9.5980,-0.0988,-0.0265,1.0161,0.0107,-0.0113,-0.0085,0.0036,0.0009,-0.0014,-10.1056,2.8793,-46.1120,
9.5990,-0.0992,-0.0259,1.0167,0.0107,-0.0113,-0.0085,0.0036,0.0009,-0.0014,-10.1056,2.8793,-46.1120,
9.6400,-0.0992,-0.0259,1.0167,0.0107,-0.0113,-0.0085,0.0057,0.0030,-0.0011,-10.1056,2.8793,-46.1120,
9.6410,-0.1009,-0.0244,1.0162,0.0107,-0.0113,-0.0085,0.0057,0.0030,-0.0011,-10.1056,2.8793,-46.1120,
9.6420,-0.1027,-0.0249,1.0170,0.0107,-0.0113,-0.0085,0.0057,0.0030,-0.0011,-10.1056,2.8793,-46.1120,
9.6420,-0.1027,-0.0249,1.0170,0.0107,-0.0113,-0.0085,0.0057,0.0030,-0.0011,-10.0639,2.8629,-46.1141,
9.6780,-0.1027,-0.0249,1.0170,0.0107,-0.0113,-0.0085,0.0017,-0.0000,-0.0002,-10.0639,2.8629,-46.1141,
9.6790,-0.1026,-0.0255,1.0183,0.0107,-0.0113,-0.0085,0.0017,-0.0000,-0.0002,-10.0639,2.8629,-46.1141,
9.6790,-0.1014,-0.0256,1.0189,0.0107,-0.0113,-0.0085,0.0017,-0.0000,-0.0002,-10.0639,2.8629,-46.1141,
9.6800,-0.1014,-0.0256,1.0189,0.0120,0.0020,-0.0215,0.0017,-0.0000,-0.0002,-10.0639,2.8629,-46.1141,
9.7110,-0.0996,-0.0263,1.0180,0.0120,0.0020,-0.0215,0.0017,-0.0000,-0.0002,-10.0639,2.8629,-46.1141,
9.7130,-0.0996,-0.0263,1.0180,0.0120,0.0020,-0.0215,-0.0010,-0.0000,0.0007,-10.0639,2.8629,-46.1141,
9.7220,-0.0983,-0.0251,1.0172,0.0120,0.0020,-0.0215,-0.0010,-0.0000,0.0007,-10.0639,2.8629,-46.1141,
9.7220,-0.0983,-0.0251,1.0172,0.0120,0.0020,-0.0215,-0.0010,-0.0000,0.0007,-10.0291,2.8632,-46.1397,
9.7340,-0.0983,-0.0251,1.0172,-0.0072,0.0098,-0.0051,-0.0010,-0.0000,0.0007,-10.0291,2.8632,-46.1397,
9.7360,-0.0983,-0.0251,1.0172,-0.0072,0.0098,-0.0051,0.0005,0.0140,-0.0011,-10.0291,2.8632,-46.1397,
9.7360,-0.0982,-0.0248,1.0157,-0.0072,0.0098,-0.0051,0.0005,0.0140,-0.0011,-10.0291,2.8632,-46.1397,
9.7770,-0.0996,-0.0251,1.0167,-0.0072,0.0098,-0.0051,0.0005,0.0140,-0.0011,-10.0291,2.8632,-46.1397,
9.7790,-0.0996,-0.0251,1.0167,-0.0072,0.0098,-0.0051,0.0008,0.0192,-0.0005,-10.0291,2.8632,-46.1397,
9.7790,-0.1008,-0.0273,1.0159,-0.0072,0.0098,-0.0051,0.0008,0.0192,-0.0005,-10.0291,2.8632,-46.1397,
9.7810,-0.1008,-0.0273,1.0159,-0.0072,0.0098,-0.0051,0.0008,0.0192,-0.0005,-10.0160,2.8460,-46.1258,
9.8130,-0.1008,-0.0273,1.0159,0.0264,0.0070,-0.0120,0.0008,0.0192,-0.0005,-10.0160,2.8460,-46.1258,
9.8150,-0.1005,-0.0282,1.0157,0.0264,0.0070,-0.0120,0.0008,0.0192,-0.0005,-10.0160,2.8460,-46.1258,
9.8150,-0.1014,-0.0278,1.0119,0.0264,0.0070,-0.0120,0.0008,0.0192,-0.0005,-10.0160,2.8460,-46.1258,
9.8160,-0.1014,-0.0278,1.0119,0.0264,0.0070,-0.0120,0.0005,-0.0031,0.0026,-10.0160,2.8460,-46.1258,
9.8410,-0.1030,-0.0259,1.0153,0.0264,0.0070,-0.0120,0.0005,-0.0031,0.0026,-10.0160,2.8460,-46.1258,
9.8430,-0.1030,-0.0259,1.0153,0.0264,0.0070,-0.0120,0.0005,-0.0031,0.0026,-10.0617,2.8422,-46.1471,
9.8710,-0.1030,-0.0259,1.0153,0.0066,-0.0056,-0.0288,0.0005,-0.0031,0.0026,-10.0617,2.8422,-46.1471,
9.8730,-0.1030,-0.0259,1.0153,0.0066,-0.0056,-0.0288,-0.0138,-0.0110,-0.0014,-10.0617,2.8422,-46.1471,
9.8730,-0.1024,-0.0257,1.0212,0.0066,-0.0056,-0.0288,-0.0138,-0.0110,-0.0014,-10.0617,2.8422,-46.1471,
9.8730,-0.0975,-0.0265,1.0261,0.0066,-0.0056,-0.0288,-0.0138,-0.0110,-0.0014,-10.0617,2.8422,-46.1471,
9.9110,-0.0914,-0.0267,1.0249,0.0066,-0.0056,-0.0288,-0.0138,-0.0110,-0.0014,-10.0617,2.8422,-46.1471,
9.9110,-0.0938,-0.0238,1.0223,0.0066,-0.0056,-0.0288,-0.0138,-0.0110,-0.0014,-10.0617,2.8422,-46.1471,
9.9120,-0.0938,-0.0238,1.0223,0.0066,-0.0056,-0.0288,-0.0053,0.0299,0.0038,-10.0617,2.8422,-46.1471,
9.9240,-0.0938,-0.0238,1.0223,0.0066,-0.0056,-0.0288,-0.0053,0.0299,0.0038,-10.1382,2.8313,-46.1651,
9.9490,-0.0938,-0.0238,1.0223,0.0066,-0.0056,-0.0288,0.0121,0.0394,-0.0026,-10.1382,2.8313,-46.1651,
9.9500,-0.1042,-0.0224,1.0207,0.0066,-0.0056,-0.0288,0.0121,0.0394,-0.0026,-10.1382,2.8313,-46.1651,
9.9510,-0.1110,-0.0244,1.0133,0.0066,-0.0056,-0.0288,0.0121,0.0394,-0.0026,-10.1382,2.8313,-46.1651,
9.9510,-0.1110,-0.0244,1.0133,0.0219,0.0001,0.0329,0.0121,0.0394,-0.0026,-10.1382,2.8313,-46.1651,
9.9770,-0.1134,-0.0276,1.0056,0.0219,0.0001,0.0329,0.0121,0.0394,-0.0026,-10.1382,2.8313,-46.1651,
9.9790,-0.1134,-0.0276,1.0056,0.0219,0.0001,0.0329,0.0136,-0.1060,-0.0084,-10.1382,2.8313,-46.1651,
9.9820,-0.1134,-0.0276,1.0056,0.0219,0.0001,0.0329,0.0136,-0.1060,-0.0084,-10.2012,2.8031,-46.2135,
10.0110,-0.1134,-0.0276,1.0056,0.0219,0.0001,0.0329,0.0017,-0.1103,-0.0057,-10.2012,2.8031,-46.2135,
10.0130,-0.1086,-0.0288,1.0040,0.0219,0.0001,0.0329,0.0017,-0.1103,-0.0057,-10.2012,2.8031,-46.2135,
10.0130,-0.0952,-0.0283,1.0069,0.0219,0.0001,0.0329,0.0017,-0.1103,-0.0057,-10.2012,2.8031,-46.2135,
10.0140,-0.0952,-0.0283,1.0069,-0.0554,0.0173,0.0068,0.0017,-0.1103,-0.0057,-10.2012,2.8031,-46.2135,
10.0410,-0.0952,-0.0283,1.0069,-0.0554,0.0173,0.0068,0.0017,-0.1103,-0.0057,-10.2802,2.8205,-46.2160,
10.0430,-0.0832,-0.0260,1.0158,-0.0554,0.0173,0.0068,0.0017,-0.1103,-0.0057,-10.2802,2.8205,-46.2160,
10.0870,-0.0832,-0.0260,1.0158,-0.0111,-0.0103,-0.1019,0.0017,-0.1103,-0.0057,-10.2802,2.8205,-46.2160,
10.0880,-0.0826,-0.0254,1.0250,-0.0111,-0.0103,-0.1019,0.0017,-0.1103,-0.0057,-10.2802,2.8205,-46.2160,
10.0890,-0.0889,-0.0270,1.0293,-0.0111,-0.0103,-0.1019,0.0017,-0.1103,-0.0057,-10.2802,2.8205,-46.2160,
10.0890,-0.0992,-0.0270,1.0260,-0.0111,-0.0103,-0.1019,0.0017,-0.1103,-0.0057,-10.2802,2.8205,-46.2160,
10.0900,-0.0992,-0.0270,1.0260,-0.0111,-0.0103,-0.1019,-0.0215,0.0721,-0.0029,-10.2802,2.8205,-46.2160,
10.0900,-0.0992,-0.0270,1.0260,-0.0111,-0.0103,-0.1019,-0.0071,0.0806,0.0004,-10.2802,2.8205,-46.2160,
10.1130,-0.1057,-0.0279,1.0190,-0.0111,-0.0103,-0.1019,-0.0071,0.0806,0.0004,-10.2802,2.8205,-46.2160,
10.1210,-0.1057,-0.0279,1.0190,-0.0111,-0.0103,-0.1019,-0.0071,0.0806,0.0004,-10.2739,2.7944,-46.2368,
10.1460,-0.1057,-0.0279,1.0190,0.1157,0.0027,0.0747,-0.0071,0.0806,0.0004,-10.2739,2.7944,-46.2368,
10.1480,-0.1048,-0.0283,1.0145,0.1157,0.0027,0.0747,-0.0071,0.0806,0.0004,-10.2739,2.7944,-46.2368,
10.1480,-0.1048,-0.0283,1.0145,0.1157,0.0027,0.0747,0.0054,0.0098,0.0062,-10.2739,2.7944,-46.2368,
10.1480,-0.1025,-0.0273,1.0142,0.1157,0.0027,0.0747,0.0054,0.0098,0.0062,-10.2739,2.7944,-46.2368,
10.1790,-0.1025,-0.0273,1.0142,0.1157,0.0027,0.0747,-0.0022,0.0073,0.0004,-10.2739,2.7944,-46.2368,
10.1800,-0.1004,-0.0246,1.0167,0.1157,0.0027,0.0747,-0.0022,0.0073,0.0004,-10.2739,2.7944,-46.2368,
10.1810,-0.1004,-0.0246,1.0167,0.1157,0.0027,0.0747,-0.0022,0.0073,0.0004,-10.2812,2.7944,-46.2469,
10.2220,-0.1004,-0.0237,1.0190,0.1157,0.0027,0.0747,-0.0022,0.0073,0.0004,-10.2812,2.7944,-46.2469,
10.2230,-0.1004,-0.0237,1.0190,0.1157,0.0027,0.0747,-0.0083,-0.0049,-0.0048,-10.2812,2.7944,-46.2469,
10.2240,-0.0997,-0.0249,1.0189,0.1157,0.0027,0.0747,-0.0083,-0.0049,-0.0048,-10.2812,2.7944,-46.2469,
10.2240,-0.0978,-0.0251,1.0200,0.1157,0.0027,0.0747,-0.0083,-0.0049,-0.0048,-10.2812,2.7944,-46.2469,
10.2250,-0.0978,-0.0251,1.0200,-0.0268,-0.0020,-0.0168,-0.0083,-0.0049,-0.0048,-10.2812,2.7944,-46.2469,
10.2420,-0.0978,-0.0251,1.0200,-0.0268,-0.0020,-0.0168,-0.0083,-0.0049,-0.0048,-10.3094,2.8035,-46.2160,
10.2440,-0.0969,-0.0245,1.0214,-0.0268,-0.0020,-0.0168,-0.0083,-0.0049,-0.0048,-10.3094,2.8035,-46.2160,
10.2440,-0.0969,-0.0245,1.0214,-0.0268,-0.0020,-0.0168,-0.0041,0.0162,0.0017,-10.3094,2.8035,-46.2160,
10.2830,-0.0969,-0.0245,1.0214,0.0262,0.0194,0.0123,-0.0041,0.0162,0.0017,-10.3094,2.8035,-46.2160,
10.2850,-0.0969,-0.0245,1.0214,0.0262,0.0194,0.0123,0.0075,0.0198,-0.0005,-10.3094,2.8035,-46.2160,
10.2860,-0.0994,-0.0253,1.0214,0.0262,0.0194,0.0123,0.0075,0.0198,-0.0005,-10.3094,2.8035,-46.2160,
10.2860,-0.1060,-0.0268,1.0181,0.0262,0.0194,0.0123,0.0075,0.0198,-0.0005,-10.3094,2.8035,-46.2160,
10.3110,-0.1047,-0.0283,1.0159,0.0262,0.0194,0.0123,0.0075,0.0198,-0.0005,-10.3094,2.8035,-46.2160,
10.3200,-0.1020,-0.0282,1.0148,0.0262,0.0194,0.0123,0.0075,0.0198,-0.0005,-10.3094,2.8035,-46.2160,
10.3210,-0.1020,-0.0282,1.0148,0.0262,0.0194,0.0123,0.0106,0.0003,0.0010,-10.3094,2.8035,-46.2160,
10.3210,-0.1020,-0.0282,1.0148,0.0262,0.0194,0.0123,0.0106,0.0003,0.0010,-10.3113,2.7983,-46.2080,
10.3590,-0.1020,-0.0282,1.0148,0.0125,0.0020,0.0194,0.0106,0.0003,0.0010,-10.3113,2.7983,-46.2080,
10.3600,-0.1020,-0.0282,1.0148,0.0125,0.0020,0.0194,0.0030,0.0198,-0.0002,-10.3113,2.7983,-46.2080,
10.3610,-0.0993,-0.0276,1.0184,0.0125,0.0020,0.0194,0.0030,0.0198,-0.0002,-10.3113,2.7983,-46.2080,
10.3610,-0.0991,-0.0253,1.0219,0.0125,0.0020,0.0194,0.0030,0.0198,-0.0002,-10.3113,2.7983,-46.2080,
10.3820,-0.1003,-0.0243,1.0232,0.0125,0.0020,0.0194,0.0030,0.0198,-0.0002,-10.3113,2.7983,-46.2080,
10.3840,-0.1003,-0.0243,1.0232,0.0125,0.0020,0.0194,0.0030,0.0198,-0.0002,-10.2556,2.7780,-46.2123,
10.4170,-0.1003,-0.0243,1.0232,0.0125,0.0020,0.0194,0.0017,0.0140,-0.0023,-10.2556,2.7780,-46.2123,
10.4170,-0.1008,-0.0250,1.0194,0.0125,0.0020,0.0194,0.0017,0.0140,-0.0023,-10.2556,2.7780,-46.2123,
10.4180,-0.1009,-0.0267,1.0169,0.0125,0.0020,0.0194,0.0017,0.0140,-0.0023,-10.2556,2.7780,-46.2123,
10.4180,-0.1009,-0.0267,1.0169,0.0240,-0.0102,0.0006,0.0017,0.0140,-0.0023,-10.2556,2.7780,-46.2123,
10.4410,-0.1010,-0.0279,1.0166,0.0240,-0.0102,0.0006,0.0017,0.0140,-0.0023,-10.2556,2.7780,-46.2123,
10.4420,-0.1010,-0.0279,1.0166,0.0240,-0.0102,0.0006,0.0017,0.0140,-0.0023,-10.2009,2.7567,-46.1926,
10.4430,-0.1010,-0.0279,1.0166,0.0240,-0.0102,0.0006,-0.0004,0.0055,0.0007,-10.2009,2.7567,-46.1926,
10.4970,-0.1029,-0.0271,1.0156,0.0240,-0.0102,0.0006,-0.0004,0.0055,0.0007,-10.2009,2.7567,-46.1926,
10.4980,-0.1020,-0.0273,1.0156,0.0240,-0.0102,0.0006,-0.0004,0.0055,0.0007,-10.2009,2.7567,-46.1926,
10.4990,-0.1030,-0.0256,1.0177,0.0240,-0.0102,0.0006,-0.0004,0.0055,0.0007,-10.2009,2.7567,-46.1926,
10.4990,-0.1030,-0.0256,1.0177,0.0240,-0.0102,0.0006,-0.0001,-0.0003,0.0001,-10.2009,2.7567,-46.1926,
10.5000,-0.1030,-0.0256,1.0177,0.0219,0.0043,0.0130,-0.0001,-0.0003,0.0001,-10.2009,2.7567,-46.1926,
10.5210,-0.1033,-0.0246,1.0185,0.0219,0.0043,0.0130,-0.0001,-0.0003,0.0001,-10.2009,2.7567,-46.1926,
10.5220,-0.1033,-0.0246,1.0185,0.0219,0.0043,0.0130,0.0014,-0.0000,-0.0005,-10.2009,2.7567,-46.1926,
10.5220,-0.1033,-0.0246,1.0185,0.0219,0.0043,0.0130,0.0014,-0.0000,-0.0005,-10.1729,2.7778,-46.1868,
10.5540,-0.1033,-0.0246,1.0185,0.0219,0.0043,0.0130,-0.0004,0.0049,0.0001,-10.1729,2.7778,-46.1868,
10.5550,-0.1033,-0.0244,1.0192,0.0219,0.0043,0.0130,-0.0004,0.0049,0.0001,-10.1729,2.7778,-46.1868,
10.5560,-0.1036,-0.0238,1.0203,0.0219,0.0043,0.0130,-0.0004,0.0049,0.0001,-10.1729,2.7778,-46.1868,
10.5560,-0.1036,-0.0238,1.0203,0.0057,-0.0067,-0.0141,-0.0004,0.0049,0.0001,-10.1729,2.7778,-46.1868,
10.5770,-0.1037,-0.0246,1.0210,0.0057,-0.0067,-0.0141,-0.0004,0.0049,0.0001,-10.1729,2.7778,-46.1868,
10.5810,-0.1037,-0.0246,1.0210,0.0057,-0.0067,-0.0141,-0.0004,0.0049,0.0001,-10.1209,2.7483,-46.2047,
10.6320,-0.1037,-0.0246,1.0210,0.0057,-0.0067,-0.0141,-0.0050,0.0055,0.0004,-10.1209,2.7483,-46.2047,
10.6340,-0.1030,-0.0265,1.0190,0.0057,-0.0067,-0.0141,-0.0050,0.0055,0.0004,-10.1209,2.7483,-46.2047,
10.6340,-0.1022,-0.0261,1.0190,0.0057,-0.0067,-0.0141,-0.0050,0.0055,0.0004,-10.1209,2.7483,-46.2047,
10.6350,-0.1010,-0.0255,1.0168,0.0057,-0.0067,-0.0141,-0.0050,0.0055,0.0004,-10.1209,2.7483,-46.2047,
10.6350,-0.1010,-0.0255,1.0168,0.0006,0.0202,0.0163,-0.0050,0.0055,0.0004,-10.1209,2.7483,-46.2047,
10.6360,-0.1010,-0.0255,1.0168,0.0006,0.0202,0.0163,-0.0032,0.0094,0.0004,-10.1209,2.7483,-46.2047,
10.6420,-0.1010,-0.0255,1.0168,0.0006,0.0202,0.0163,-0.0032,0.0094,0.0004,-10.0803,2.7651,-46.1879,
10.6930,-0.1009,-0.0254,1.0150,0.0006,0.0202,0.0163,-0.0032,0.0094,0.0004,-10.0803,2.7651,-46.1879,
10.6950,-0.1022,-0.0246,1.0148,0.0006,0.0202,0.0163,-0.0032,0.0094,0.0004,-10.0803,2.7651,-46.1879,
10.6950,-0.1040,-0.0272,1.0152,0.0006,0.0202,0.0163,-0.0032,0.0094,0.0004,-10.0803,2.7651,-46.1879,
10.6960,-0.1040,-0.0272,1.0152,0.0209,0.0020,0.0072,-0.0032,0.0094,0.0004,-10.0803,2.7651,-46.1879,
10.6960,-0.1040,-0.0272,1.0152,0.0209,0.0020,0.0072,-0.0001,0.0180,-0.0005,-10.0803,2.7651,-46.1879,
10.7110,-0.1043,-0.0303,1.0155,0.0209,0.0020,0.0072,-0.0001,0.0180,-0.0005,-10.0803,2.7651,-46.1879,
10.7130,-0.1043,-0.0303,1.0155,0.0209,0.0020,0.0072,0.0014,0.0088,0.0026,-10.0803,2.7651,-46.1879,
10.7210,-0.1043,-0.0303,1.0155,0.0209,0.0020,0.0072,0.0014,0.0088,0.0026,-10.0582,2.7799,-46.2023,
10.7700,-0.1042,-0.0283,1.0148,0.0209,0.0020,0.0072,0.0014,0.0088,0.0026,-10.0582,2.7799,-46.2023,
10.7720,-0.1074,-0.0266,1.0170,0.0209,0.0020,0.0072,0.0014,0.0088,0.0026,-10.0582,2.7799,-46.2023,
10.7740,-0.1060,-0.0254,1.0213,0.0209,0.0020,0.0072,0.0014,0.0088,0.0026,-10.0582,2.7799,-46.2023,
10.7740,-0.1060,-0.0254,1.0213,0.0070,0.0029,-0.0250,0.0014,0.0088,0.0026,-10.0582,2.7799,-46.2023,
10.7750,-0.1060,-0.0254,1.0213,0.0070,0.0029,-0.0250,-0.0050,-0.0174,0.0010,-10.0582,2.7799,-46.2023,
10.7820,-0.1060,-0.0254,1.0213,0.0070,0.0029,-0.0250,-0.0050,-0.0174,0.0010,-10.0425,2.7795,-46.2115,
10.8270,-0.1060,-0.0254,1.0213,0.0029,-0.0036,-0.0004,-0.0050,-0.0174,0.0010,-10.0425,2.7795,-46.2115,
10.8290,-0.1060,-0.0254,1.0213,0.0029,-0.0036,-0.0004,-0.0163,-0.0006,0.0007,-10.0425,2.7795,-46.2115,
10.8290,-0.1060,-0.0254,1.0213,0.0029,-0.0036,-0.0004,-0.0001,0.0482,0.0041,-10.0425,2.7795,-46.2115,
10.8300,-0.1015,-0.0279,1.0255,0.0029,-0.0036,-0.0004,-0.0001,0.0482,0.0041,-10.0425,2.7795,-46.2115,
10.8300,-0.0938,-0.0276,1.0239,0.0029,-0.0036,-0.0004,-0.0001,0.0482,0.0041,-10.0425,2.7795,-46.2115,
10.8310,-0.0956,-0.0238,1.0191,0.0029,-0.0036,-0.0004,-0.0001,0.0482,0.0041,-10.0425,2.7795,-46.2115,
10.8410,-0.0956,-0.0238,1.0191,0.0029,-0.0036,-0.0004,-0.0001,0.0482,0.0041,-10.0516,2.7882,-46.2167,
10.8760,-0.0956,-0.0238,1.0191,0.0029,-0.0036,-0.0004,0.0106,-0.0067,-0.0069,-10.0516,2.7882,-46.2167,
10.8760,-0.1047,-0.0216,1.0200,0.0029,-0.0036,-0.0004,0.0106,-0.0067,-0.0069,-10.0516,2.7882,-46.2167,
10.8770,-0.1132,-0.0242,1.0152,0.0029,-0.0036,-0.0004,0.0106,-0.0067,-0.0069,-10.0516,2.7882,-46.2167,
10.9070,-0.1132,-0.0242,1.0152,0.0133,0.0031,0.0383,0.0106,-0.0067,-0.0069,-10.0516,2.7882,-46.2167,
10.9080,-0.1132,-0.0242,1.0152,0.0133,0.0031,0.0383,0.0167,-0.1485,-0.0090,-10.0516,2.7882,-46.2167,
10.9090,-0.1158,-0.0270,1.0078,0.0133,0.0031,0.0383,0.0167,-0.1485,-0.0090,-10.0516,2.7882,-46.2167,
10.9090,-0.1130,-0.0282,1.0025,0.0133,0.0031,0.0383,0.0167,-0.1485,-0.0090,-10.0516,2.7882,-46.2167,
10.9210,-0.1130,-0.0282,1.0025,0.0133,0.0031,0.0383,0.0167,-0.1485,-0.0090,-10.0895,2.8106,-46.2090,
10.9650,-0.1130,-0.0282,1.0025,0.0133,0.0031,0.0383,-0.0044,-0.0428,-0.0041,-10.0895,2.8106,-46.2090,
10.9670,-0.0997,-0.0282,1.0063,0.0133,0.0031,0.0383,-0.0044,-0.0428,-0.0041,-10.0895,2.8106,-46.2090,
10.9680,-0.0997,-0.0282,1.0063,-0.1104,0.0063,-0.0730,-0.0044,-0.0428,-0.0041,-10.0895,2.8106,-46.2090,
10.9690,-0.0853,-0.0261,1.0148,-0.1104,0.0063,-0.0730,-0.0044,-0.0428,-0.0041,-10.0895,2.8106,-46.2090,
10.9700,-0.0815,-0.0254,1.0240,-0.1104,0.0063,-0.0730,-0.0044,-0.0428,-0.0041,-10.0895,2.8106,-46.2090,
10.9820,-0.0815,-0.0254,1.0240,-0.1104,0.0063,-0.0730,-0.0044,-0.0428,-0.0041,-10.1040,2.8150,-46.2414,
11.0440,-0.0887,-0.0256,1.0272,-0.1104,0.0063,-0.0730,-0.0044,-0.0428,-0.0041,-10.1040,2.8150,-46.2414,
11.0460,-0.0887,-0.0256,1.0272,-0.1104,0.0063,-0.0730,-0.0142,0.0977,-0.0017,-10.1040,2.8150,-46.2414,
11.0470,-0.0887,-0.0256,1.0272,-0.1104,0.0063,-0.0730,-0.0007,0.0336,0.0050,-10.1040,2.8150,-46.2414,
11.0480,-0.1000,-0.0265,1.0232,-0.1104,0.0063,-0.0730,-0.0007,0.0336,0.0050,-10.1040,2.8150,-46.2414,
11.0480,-0.1070,-0.0294,1.0153,-0.1104,0.0063,-0.0730,-0.0007,0.0336,0.0050,-10.1040,2.8150,-46.2414,
11.0490,-0.1070,-0.0294,1.0153,-0.1104,0.0063,-0.0730,-0.0007,0.0336,0.0050,-10.1341,2.8106,-46.2665,
11.0500,-0.1075,-0.0294,1.0134,-0.1104,0.0063,-0.0730,-0.0007,0.0336,0.0050,-10.1341,2.8106,-46.2665,
11.0500,-0.1075,-0.0294,1.0134,0.1345,0.0014,-0.0043,-0.0007,0.0336,0.0050,-10.1341,2.8106,-46.2665,
11.1030,-0.1075,-0.0294,1.0134,-0.0057,-0.0130,0.0126,-0.0007,0.0336,0.0050,-10.1341,2.8106,-46.2665,
11.1050,-0.1054,-0.0268,1.0155,-0.0057,-0.0130,0.0126,-0.0007,0.0336,0.0050,-10.1341,2.8106,-46.2665,
11.1060,-0.1021,-0.0246,1.0167,-0.0057,-0.0130,0.0126,-0.0007,0.0336,0.0050,-10.1341,2.8106,-46.2665,
11.1060,-0.1008,-0.0254,1.0178,-0.0057,-0.0130,0.0126,-0.0007,0.0336,0.0050,-10.1341,2.8106,-46.2665,
11.1070,-0.1008,-0.0254,1.0178,-0.0057,-0.0130,0.0126,0.0026,-0.0040,0.0035,-10.1341,2.8106,-46.2665,
11.1070,-0.1008,-0.0254,1.0178,-0.0057,-0.0130,0.0126,-0.0007,0.0018,-0.0035,-10.1341,2.8106,-46.2665,
11.1210,-0.1008,-0.0254,1.0178,-0.0057,-0.0130,0.0126,-0.0007,0.0018,-0.0035,-10.1799,2.8123,-46.2817,
11.1230,-0.1003,-0.0256,1.0174,-0.0057,-0.0130,0.0126,-0.0007,0.0018,-0.0035,-10.1799,2.8123,-46.2817,
11.1790,-0.1003,-0.0256,1.0174,-0.0057,-0.0130,0.0126,-0.0053,0.0009,0.0010,-10.1799,2.8123,-46.2817,
11.1810,-0.1007,-0.0260,1.0191,-0.0057,-0.0130,0.0126,-0.0053,0.0009,0.0010,-10.1799,2.8123,-46.2817,
11.1810,-0.0996,-0.0254,1.0194,-0.0057,-0.0130,0.0126,-0.0053,0.0009,0.0010,-10.1799,2.8123,-46.2817,
11.1820,-0.1015,-0.0256,1.0189,-0.0057,-0.0130,0.0126,-0.0053,0.0009,0.0010,-10.1799,2.8123,-46.2817,
11.1820,-0.1015,-0.0256,1.0189,-0.0057,-0.0130,0.0126,-0.0047,0.0229,0.0020,-10.1799,2.8123,-46.2817,
11.1830,-0.1015,-0.0256,1.0189,0.0074,0.0136,-0.0055,-0.0047,0.0229,0.0020,-10.1799,2.8123,-46.2817,
11.1830,-0.1015,-0.0256,1.0189,0.0074,0.0136,-0.0055,-0.0047,0.0229,0.0020,-10.2117,2.8155,-46.2947,
11.2380,-0.1015,-0.0256,1.0189,0.0271,0.0075,0.0156,-0.0047,0.0229,0.0020,-10.2117,2.8155,-46.2947,
11.2390,-0.1015,-0.0256,1.0189,0.0271,0.0075,0.0156,0.0039,0.0073,-0.0005,-10.2117,2.8155,-46.2947,
11.2390,-0.1069,-0.0263,1.0164,0.0271,0.0075,0.0156,0.0039,0.0073,-0.0005,-10.2117,2.8155,-46.2947,
11.2400,-0.1065,-0.0279,1.0137,0.0271,0.0075,0.0156,0.0039,0.0073,-0.0005,-10.2117,2.8155,-46.2947,
11.2400,-0.1042,-0.0273,1.0129,0.0271,0.0075,0.0156,0.0039,0.0073,-0.0005,-10.2117,2.8155,-46.2947,
11.2410,-0.1042,-0.0273,1.0129,0.0271,0.0075,0.0156,0.0039,0.0073,-0.0005,-10.1906,2.8195,-46.3073,
