
time,gFx,gFy,gFz,ax,ay,az,wx,wy,wz,Bx,By,Bz,
0.0540,-0.1043,-0.0152,1.0308,0.0000,0.0000,0.0000,0.0000,0.0000,0.0000,0.0000,0.0000,0.0000,
0.0870,-0.0942,-0.0196,1.0263,0.0000,0.0000,0.0000,0.0000,0.0000,0.0000,0.0000,0.0000,0.0000,
0.0880,-0.0942,-0.0196,1.0263,0.0000,0.0000,0.0000,-0.0207,0.0205,0.0134,0.0000,0.0000,0.0000,
0.0890,-0.0992,-0.0125,1.0239,0.0000,0.0000,0.0000,-0.0207,0.0205,0.0134,0.0000,0.0000,0.0000,
0.1100,-0.1088,-0.0091,1.0251,0.0000,0.0000,0.0000,-0.0207,0.0205,0.0134,0.0000,0.0000,0.0000,
0.1110,-0.1088,-0.0091,1.0251,0.0000,0.0000,0.0000,0.0260,0.0467,-0.0077,0.0000,0.0000,0.0000,
0.1510,-0.1088,-0.0091,1.0251,0.0000,0.0000,0.0000,0.0517,-0.0583,-0.0031,0.0000,0.0000,0.0000,
0.1520,-0.1094,-0.0146,1.0201,0.0000,0.0000,0.0000,0.0517,-0.0583,-0.0031,0.0000,0.0000,0.0000,
0.1530,-0.1109,-0.0183,1.0103,0.0000,0.0000,0.0000,0.0517,-0.0583,-0.0031,0.0000,0.0000,0.0000,
0.1530,-0.1125,-0.0217,1.0045,0.0000,0.0000,0.0000,0.0517,-0.0583,-0.0031,0.0000,0.0000,0.0000,
0.1540,-0.1125,-0.0217,1.0045,0.0000,0.0000,0.0000,0.0517,-0.0583,-0.0031,0.0000,0.0000,0.0000,
0.1550,-0.1125,-0.0217,1.0045,0.0000,0.0000,0.0000,0.0517,-0.0583,-0.0031,-10.2627,2.0804,-45.9326,
0.1760,-0.1040,-0.0212,1.0078,0.0000,0.0000,0.0000,0.0517,-0.0583,-0.0031,-10.2627,2.0804,-45.9326,
0.1770,-0.1040,-0.0212,1.0078,0.0000,0.0000,0.0000,0.0456,-0.1164,-0.0006,-10.2627,2.0804,-45.9326,
0.2210,-0.0906,-0.0172,1.0213,0.0000,0.0000,0.0000,0.0456,-0.1164,-0.0006,-10.2627,2.0804,-45.9326,
0.2220,-0.0906,-0.0172,1.0213,0.0000,0.0000,0.0000,0.0083,0.0483,-0.0028,-10.2627,2.0804,-45.9326,
0.2220,-0.0851,-0.0156,1.0306,0.0000,0.0000,0.0000,0.0083,0.0483,-0.0028,-10.2627,2.0804,-45.9326,
0.2230,-0.0851,-0.0156,1.0306,0.0000,0.0000,0.0000,0.0083,0.0483,-0.0028,-10.1053,1.9420,-46.2257,
0.2280,-0.0851,-0.0156,1.0306,-0.0319,-0.0251,-0.0715,0.0083,0.0483,-0.0028,-10.1053,1.9420,-46.2257,
0.2310,-0.0927,-0.0150,1.0285,-0.0319,-0.0251,-0.0715,0.0083,0.0483,-0.0028,-10.1053,1.9420,-46.2257,
0.2880,-0.0927,-0.0150,1.0285,-0.0319,-0.0251,-0.0715,0.0065,0.0870,-0.0025,-10.1053,1.9420,-46.2257,
0.2890,-0.1030,-0.0171,1.0196,-0.0319,-0.0251,-0.0715,0.0065,0.0870,-0.0025,-10.1053,1.9420,-46.2257,
0.2890,-0.1030,-0.0171,1.0196,0.1112,-0.0025,0.0417,0.0065,0.0870,-0.0025,-10.1053,1.9420,-46.2257,
0.2900,-0.1097,-0.0178,1.0136,0.1112,-0.0025,0.0417,0.0065,0.0870,-0.0025,-10.1053,1.9420,-46.2257,
0.2900,-0.1129,-0.0177,1.0130,0.1112,-0.0025,0.0417,0.0065,0.0870,-0.0025,-10.1053,1.9420,-46.2257,
0.2910,-0.1129,-0.0177,1.0130,0.1112,-0.0025,0.0417,-0.0021,-0.0012,0.0049,-10.1053,1.9420,-46.2257,
0.2910,-0.1129,-0.0177,1.0130,0.1112,-0.0025,0.0417,-0.0021,-0.0012,0.0049,-9.8981,1.9028,-46.1010,
0.3100,-0.1123,-0.0160,1.0145,0.1112,-0.0025,0.0417,-0.0021,-0.0012,0.0049,-9.8981,1.9028,-46.1010,
0.3550,-0.1123,-0.0160,1.0145,0.1112,-0.0025,0.0417,-0.0021,-0.0012,0.0049,-9.9616,1.9108,-46.1712,
0.3560,-0.1065,-0.0150,1.0167,0.1112,-0.0025,0.0417,-0.0021,-0.0012,0.0049,-9.9616,1.9108,-46.1712,
0.3570,-0.1030,-0.0144,1.0205,0.1112,-0.0025,0.0417,-0.0021,-0.0012,0.0049,-9.9616,1.9108,-46.1712,
0.3570,-0.1030,-0.0144,1.0205,0.1112,-0.0025,0.0417,-0.0085,-0.0397,-0.0003,-9.9616,1.9108,-46.1712,
0.3660,-0.1030,-0.0144,1.0205,0.1112,-0.0025,0.0417,0.0010,0.0027,0.0018,-9.9616,1.9108,-46.1712,
0.3660,-0.1003,-0.0141,1.0227,0.1112,-0.0025,0.0417,0.0010,0.0027,0.0018,-9.9616,1.9108,-46.1712,
0.3670,-0.1003,-0.0141,1.0227,-0.0573,-0.0053,-0.0369,0.0010,0.0027,0.0018,-9.9616,1.9108,-46.1712,
0.4220,-0.1018,-0.0129,1.0274,-0.0573,-0.0053,-0.0369,0.0010,0.0027,0.0018,-9.9616,1.9108,-46.1712,
0.4220,-0.1018,-0.0129,1.0274,-0.0573,-0.0053,-0.0369,0.0153,0.0501,0.0064,-9.9616,1.9108,-46.1712,
0.4230,-0.1049,-0.0124,1.0278,-0.0573,-0.0053,-0.0369,0.0153,0.0501,0.0064,-9.9616,1.9108,-46.1712,
0.4240,-0.1049,-0.0124,1.0278,-0.0573,-0.0053,-0.0369,0.0153,0.0501,0.0064,-10.0003,1.9169,-46.1722,
0.4240,-0.1082,-0.0144,1.0251,-0.0573,-0.0053,-0.0369,0.0153,0.0501,0.0064,-10.0003,1.9169,-46.1722,
0.4250,-0.1082,-0.0144,1.0251,0.0162,0.0036,0.0045,0.0153,0.0501,0.0064,-10.0003,1.9169,-46.1722,
0.4890,-0.1104,-0.0171,1.0194,0.0162,0.0036,0.0045,0.0153,0.0501,0.0064,-10.0003,1.9169,-46.1722,
0.4890,-0.1104,-0.0171,1.0194,0.0162,0.0036,0.0045,0.0288,0.0269,0.0082,-10.0003,1.9169,-46.1722,
0.4900,-0.1104,-0.0171,1.0194,0.0162,0.0036,0.0045,0.0294,-0.0244,0.0082,-10.0003,1.9169,-46.1722,
0.4910,-0.1084,-0.0191,1.0117,0.0162,0.0036,0.0045,0.0294,-0.0244,0.0082,-10.0003,1.9169,-46.1722,
0.4910,-0.1044,-0.0177,1.0081,0.0162,0.0036,0.0045,0.0294,-0.0244,0.0082,-10.0003,1.9169,-46.1722,
0.4920,-0.1044,-0.0177,1.0081,0.0162,0.0036,0.0045,0.0294,-0.0244,0.0082,-9.9766,1.9216,-46.2224,
0.5020,-0.1044,-0.0177,1.0081,-0.0040,-0.0046,0.0590,0.0294,-0.0244,0.0082,-9.9766,1.9216,-46.2224,
0.5020,-0.1010,-0.0167,1.0117,-0.0040,-0.0046,0.0590,0.0294,-0.0244,0.0082,-9.9766,1.9216,-46.2224,
0.5550,-0.1010,-0.0167,1.0117,-0.0040,-0.0046,0.0590,0.0196,0.0266,0.0067,-9.9766,1.9216,-46.2224,
0.5560,-0.1011,-0.0167,1.0166,-0.0040,-0.0046,0.0590,0.0196,0.0266,0.0067,-9.9766,1.9216,-46.2224,
0.5570,-0.1011,-0.0167,1.0166,-0.0040,-0.0046,0.0590,0.0196,0.0266,0.0067,-9.9877,1.9241,-46.2447,
0.5580,-0.1046,-0.0161,1.0207,-0.0040,-0.0046,0.0590,0.0196,0.0266,0.0067,-9.9877,1.9241,-46.2447,
0.5610,-0.1046,-0.0161,1.0207,0.0171,-0.0477,-0.0717,0.0196,0.0266,0.0067,-9.9877,1.9241,-46.2447,
0.5620,-0.1046,-0.0161,1.0207,0.0171,-0.0477,-0.0717,0.0162,0.0330,0.0046,-9.9877,1.9241,-46.2447,
0.5620,-0.1102,-0.0158,1.0191,0.0171,-0.0477,-0.0717,0.0162,0.0330,0.0046,-9.9877,1.9241,-46.2447,
0.6230,-0.1102,-0.0158,1.0191,0.0171,-0.0477,-0.0717,0.0049,-0.0168,0.0058,-9.9877,1.9241,-46.2447,
0.6240,-0.1136,-0.0152,1.0186,0.0171,-0.0477,-0.0717,0.0049,-0.0168,0.0058,-9.9877,1.9241,-46.2447,
0.6250,-0.1112,-0.0147,1.0186,0.0171,-0.0477,-0.0717,0.0049,-0.0168,0.0058,-9.9877,1.9241,-46.2447,
0.6250,-0.1112,-0.0147,1.0186,0.0171,-0.0477,-0.0717,0.0049,-0.0168,0.0058,-9.9969,1.9280,-46.1970,
0.6260,-0.1088,-0.0140,1.0178,0.0171,-0.0477,-0.0717,0.0049,-0.0168,0.0058,-9.9969,1.9280,-46.1970,
0.6380,-0.1065,-0.0149,1.0180,0.0171,-0.0477,-0.0717,0.0049,-0.0168,0.0058,-9.9969,1.9280,-46.1970,
0.6390,-0.1065,-0.0149,1.0180,0.0171,-0.0477,-0.0717,0.0007,-0.0177,0.0061,-9.9969,1.9280,-46.1970,
0.6400,-0.1065,-0.0149,1.0180,-0.0052,-0.0298,0.0004,0.0007,-0.0177,0.0061,-9.9969,1.9280,-46.1970,
0.6880,-0.1059,-0.0145,1.0163,-0.0052,-0.0298,0.0004,0.0007,-0.0177,0.0061,-9.9969,1.9280,-46.1970,
0.6890,-0.1059,-0.0145,1.0163,-0.0052,-0.0298,0.0004,0.0068,0.0040,0.0067,-9.9969,1.9280,-46.1970,
0.6890,-0.1066,-0.0145,1.0146,-0.0052,-0.0298,0.0004,0.0068,0.0040,0.0067,-9.9969,1.9280,-46.1970,
0.6900,-0.1066,-0.0145,1.0146,-0.0052,-0.0298,0.0004,0.0068,0.0040,0.0067,-9.9119,1.9106,-46.2465,
0.6970,-0.1066,-0.0145,1.0146,-0.0271,-0.0171,-0.0056,0.0068,0.0040,0.0067,-9.9119,1.9106,-46.2465,
0.6970,-0.1073,-0.0136,1.0134,-0.0271,-0.0171,-0.0056,0.0068,0.0040,0.0067,-9.9119,1.9106,-46.2465,
0.7560,-0.1073,-0.0136,1.0134,-0.0271,-0.0171,-0.0056,0.0123,0.0128,0.0073,-9.9119,1.9106,-46.2465,
0.7570,-0.1074,-0.0134,1.0151,-0.0271,-0.0171,-0.0056,0.0123,0.0128,0.0073,-9.9119,1.9106,-46.2465,
0.7580,-0.1074,-0.0133,1.0181,-0.0271,-0.0171,-0.0056,0.0123,0.0128,0.0073,-9.9119,1.9106,-46.2465,
0.7580,-0.1074,-0.0133,1.0181,-0.0271,-0.0171,-0.0056,0.0123,0.0128,0.0073,-9.8739,1.9421,-46.2304,
0.7780,-0.1073,-0.0150,1.0205,-0.0271,-0.0171,-0.0056,0.0123,0.0128,0.0073,-9.8739,1.9421,-46.2304,
0.7790,-0.1051,-0.0162,1.0216,-0.0271,-0.0171,-0.0056,0.0123,0.0128,0.0073,-9.8739,1.9421,-46.2304,
0.7790,-0.1051,-0.0162,1.0216,-0.0271,-0.0171,-0.0056,0.0123,0.0137,0.0073,-9.8739,1.9421,-46.2304,
0.7800,-0.1051,-0.0162,1.0216,0.0092,-0.0191,-0.0333,0.0123,0.0137,0.0073,-9.8739,1.9421,-46.2304,
0.8220,-0.1043,-0.0172,1.0225,0.0092,-0.0191,-0.0333,0.0123,0.0137,0.0073,-9.8739,1.9421,-46.2304,
0.8230,-0.1043,-0.0172,1.0225,0.0092,-0.0191,-0.0333,0.0123,0.0137,0.0073,-9.8847,1.9714,-46.2161,
0.8240,-0.1032,-0.0167,1.0207,0.0092,-0.0191,-0.0333,0.0123,0.0137,0.0073,-9.8847,1.9714,-46.2161,
0.8250,-0.1032,-0.0167,1.0207,0.0092,-0.0191,-0.0333,0.0104,0.0153,0.0067,-9.8847,1.9714,-46.2161,
0.8350,-0.1055,-0.0172,1.0184,0.0092,-0.0191,-0.0333,0.0104,0.0153,0.0067,-9.8847,1.9714,-46.2161,
0.8360,-0.1055,-0.0172,1.0184,0.0092,-0.0191,-0.0333,0.0159,0.0171,0.0030,-9.8847,1.9714,-46.2161,
0.8360,-0.1055,-0.0172,1.0184,0.0188,-0.0313,0.0115,0.0159,0.0171,0.0030,-9.8847,1.9714,-46.2161,
0.8890,-0.1081,-0.0176,1.0151,0.0188,-0.0313,0.0115,0.0159,0.0171,0.0030,-9.8847,1.9714,-46.2161,
0.8900,-0.1081,-0.0176,1.0151,0.0188,-0.0313,0.0115,0.0126,0.0104,0.0039,-9.8847,1.9714,-46.2161,
0.8900,-0.1099,-0.0195,1.0146,0.0188,-0.0313,0.0115,0.0126,0.0104,0.0039,-9.8847,1.9714,-46.2161,
0.8910,-0.1099,-0.0195,1.0146,0.0188,-0.0313,0.0115,0.0126,0.0104,0.0039,-9.8612,1.9634,-46.1901,
0.9080,-0.1120,-0.0172,1.0156,0.0188,-0.0313,0.0115,0.0126,0.0104,0.0039,-9.8612,1.9634,-46.1901,
0.9130,-0.1130,-0.0138,1.0189,0.0188,-0.0313,0.0115,0.0126,0.0104,0.0039,-9.8612,1.9634,-46.1901,
0.9140,-0.1130,-0.0138,1.0189,0.0188,-0.0313,0.0115,-0.0036,-0.0061,0.0076,-9.8612,1.9634,-46.1901,
0.9150,-0.1130,-0.0138,1.0189,0.0330,-0.0509,0.0138,-0.0036,-0.0061,0.0076,-9.8612,1.9634,-46.1901,
0.9550,-0.1146,-0.0121,1.0255,0.0330,-0.0509,0.0138,-0.0036,-0.0061,0.0076,-9.8612,1.9634,-46.1901,
0.9560,-0.1124,-0.0123,1.0318,0.0330,-0.0509,0.0138,-0.0036,-0.0061,0.0076,-9.8612,1.9634,-46.1901,
0.9570,-0.1124,-0.0123,1.0318,0.0330,-0.0509,0.0138,-0.0097,-0.0009,0.0076,-9.8612,1.9634,-46.1901,
0.9570,-0.1124,-0.0123,1.0318,0.0330,-0.0509,0.0138,-0.0097,-0.0009,0.0076,-9.8004,1.9666,-46.1749,
0.9700,-0.1124,-0.0123,1.0318,-0.0233,-0.0471,-0.0193,-0.0097,-0.0009,0.0076,-9.8004,1.9666,-46.1749,
0.9720,-0.1064,-0.0143,1.0316,-0.0233,-0.0471,-0.0193,-0.0097,-0.0009,0.0076,-9.8004,1.9666,-46.1749,
1.0220,-0.1064,-0.0143,1.0316,-0.0233,-0.0471,-0.0193,0.0266,0.0168,0.0140,-9.8004,1.9666,-46.1749,
1.0230,-0.1013,-0.0150,1.0252,-0.0233,-0.0471,-0.0193,0.0266,0.0168,0.0140,-9.8004,1.9666,-46.1749,
1.0230,-0.1065,-0.0158,1.0196,-0.0233,-0.0471,-0.0193,0.0266,0.0168,0.0140,-9.8004,1.9666,-46.1749,
1.0240,-0.1065,-0.0158,1.0196,-0.0233,-0.0471,-0.0193,0.0266,0.0168,0.0140,-9.7634,1.9784,-46.1600,
1.0440,-0.1065,-0.0158,1.0196,-0.0233,-0.0471,-0.0193,0.0511,0.0058,0.0018,-9.7634,1.9784,-46.1600,
1.0450,-0.1140,-0.0180,1.0148,-0.0233,-0.0471,-0.0193,0.0511,0.0058,0.0018,-9.7634,1.9784,-46.1600,
1.0480,-0.1159,-0.0223,1.0069,-0.0233,-0.0471,-0.0193,0.0511,0.0058,0.0018,-9.7634,1.9784,-46.1600,
1.0490,-0.1159,-0.0223,1.0069,-0.0171,-0.0379,0.0965,0.0511,0.0058,0.0018,-9.7634,1.9784,-46.1600,
1.0880,-0.1157,-0.0239,1.0030,-0.0171,-0.0379,0.0965,0.0511,0.0058,0.0018,-9.7634,1.9784,-46.1600,
1.0900,-0.1102,-0.0196,1.0091,-0.0171,-0.0379,0.0965,0.0511,0.0058,0.0018,-9.7634,1.9784,-46.1600,
1.0900,-0.1102,-0.0196,1.0091,-0.0171,-0.0379,0.0965,0.0511,0.0058,0.0018,-9.7155,1.9826,-46.0939,
1.0910,-0.1102,-0.0196,1.0091,-0.0171,-0.0379,0.0965,0.0382,-0.0904,-0.0003,-9.7155,1.9826,-46.0939,
1.1080,-0.1102,-0.0196,1.0091,-0.0494,-0.0874,-0.0412,0.0382,-0.0904,-0.0003,-9.7155,1.9826,-46.0939,
1.1080,-0.1102,-0.0196,1.0091,-0.0494,-0.0874,-0.0412,0.0126,-0.0363,-0.0037,-9.7155,1.9826,-46.0939,
1.1090,-0.0998,-0.0139,1.0164,-0.0494,-0.0874,-0.0412,0.0126,-0.0363,-0.0037,-9.7155,1.9826,-46.0939,
1.1540,-0.0931,-0.0122,1.0213,-0.0494,-0.0874,-0.0412,0.0126,-0.0363,-0.0037,-9.7155,1.9826,-46.0939,
1.1560,-0.0931,-0.0122,1.0213,-0.0494,-0.0874,-0.0412,-0.0054,0.0498,-0.0034,-9.7155,1.9826,-46.0939,
1.1570,-0.0945,-0.0130,1.0208,-0.0494,-0.0874,-0.0412,-0.0054,0.0498,-0.0034,-9.7155,1.9826,-46.0939,
1.1580,-0.0945,-0.0130,1.0208,-0.0494,-0.0874,-0.0412,-0.0054,0.0498,-0.0034,-9.7057,1.9337,-46.1094,
1.1750,-0.1020,-0.0147,1.0199,-0.0494,-0.0874,-0.0412,-0.0054,0.0498,-0.0034,-9.7057,1.9337,-46.1094,
1.1860,-0.1102,-0.0184,1.0194,-0.0494,-0.0874,-0.0412,-0.0054,0.0498,-0.0034,-9.7057,1.9337,-46.1094,
1.1870,-0.1102,-0.0184,1.0194,-0.0494,-0.0874,-0.0412,-0.0048,0.0431,0.0036,-9.7057,1.9337,-46.1094,
1.1870,-0.1102,-0.0184,1.0194,0.0212,-0.0744,-0.0676,-0.0048,0.0431,0.0036,-9.7057,1.9337,-46.1094,
1.2220,-0.1138,-0.0202,1.0214,0.0212,-0.0744,-0.0676,-0.0048,0.0431,0.0036,-9.7057,1.9337,-46.1094,
1.2230,-0.1138,-0.0202,1.0214,0.0212,-0.0744,-0.0676,-0.0048,0.0431,0.0036,-9.7311,1.9240,-46.0724,
1.2430,-0.1121,-0.0196,1.0218,0.0212,-0.0744,-0.0676,-0.0048,0.0431,0.0036,-9.7311,1.9240,-46.0724,
1.2450,-0.1121,-0.0196,1.0218,0.0212,-0.0744,-0.0676,0.0043,0.0086,0.0079,-9.7311,1.9240,-46.0724,
1.2460,-0.1084,-0.0173,1.0223,0.0212,-0.0744,-0.0676,0.0043,0.0086,0.0079,-9.7311,1.9240,-46.0724,
1.2460,-0.1084,-0.0173,1.0223,0.0670,-0.0433,0.0186,0.0043,0.0086,0.0079,-9.7311,1.9240,-46.0724,
1.2880,-0.1084,-0.0173,1.0223,0.0670,-0.0433,0.0186,0.0193,-0.0134,-0.0009,-9.7311,1.9240,-46.0724,
1.2900,-0.1085,-0.0139,1.0200,0.0670,-0.0433,0.0186,0.0193,-0.0134,-0.0009,-9.7311,1.9240,-46.0724,
1.2910,-0.1092,-0.0125,1.0183,0.0670,-0.0433,0.0186,0.0193,-0.0134,-0.0009,-9.7311,1.9240,-46.0724,
1.2910,-0.1092,-0.0125,1.0183,0.0670,-0.0433,0.0186,0.0193,-0.0134,-0.0009,-9.7302,1.9440,-46.0583,
1.3090,-0.1109,-0.0123,1.0181,0.0670,-0.0433,0.0186,0.0193,-0.0134,-0.0009,-9.7302,1.9440,-46.0583,
1.3100,-0.1109,-0.0123,1.0181,0.0670,-0.0433,0.0186,0.0242,-0.0153,-0.0019,-9.7302,1.9440,-46.0583,
1.3220,-0.1088,-0.0112,1.0185,0.0670,-0.0433,0.0186,0.0242,-0.0153,-0.0019,-9.7302,1.9440,-46.0583,
1.3230,-0.1088,-0.0112,1.0185,-0.0369,-0.0824,0.0275,0.0242,-0.0153,-0.0019,-9.7302,1.9440,-46.0583,
1.3540,-0.1069,-0.0112,1.0174,-0.0369,-0.0824,0.0275,0.0242,-0.0153,-0.0019,-9.7302,1.9440,-46.0583,
1.3550,-0.1069,-0.0112,1.0174,-0.0369,-0.0824,0.0275,0.0135,-0.0034,0.0030,-9.7302,1.9440,-46.0583,
1.3560,-0.1069,-0.0112,1.0174,-0.0369,-0.0824,0.0275,0.0135,-0.0034,0.0030,-9.7155,1.9716,-46.1331,
1.3770,-0.1086,-0.0140,1.0147,-0.0369,-0.0824,0.0275,0.0135,-0.0034,0.0030,-9.7155,1.9716,-46.1331,
1.3820,-0.1086,-0.0140,1.0147,-0.0369,-0.0824,0.0275,0.0104,-0.0272,0.0027,-9.7155,1.9716,-46.1331,
1.3830,-0.1093,-0.0166,1.0134,-0.0369,-0.0824,0.0275,0.0104,-0.0272,0.0027,-9.7155,1.9716,-46.1331,
1.3840,-0.1093,-0.0166,1.0134,-0.0311,-0.0266,-0.0035,0.0104,-0.0272,0.0027,-9.7155,1.9716,-46.1331,
1.4230,-0.1093,-0.0166,1.0134,-0.0311,-0.0266,-0.0035,0.0239,-0.0162,0.0042,-9.7155,1.9716,-46.1331,
1.4240,-0.1073,-0.0176,1.0126,-0.0311,-0.0266,-0.0035,0.0239,-0.0162,0.0042,-9.7155,1.9716,-46.1331,
1.4250,-0.1040,-0.0172,1.0157,-0.0311,-0.0266,-0.0035,0.0239,-0.0162,0.0042,-9.7155,1.9716,-46.1331,
1.4250,-0.1040,-0.0172,1.0157,-0.0311,-0.0266,-0.0035,0.0239,-0.0162,0.0042,-9.6906,1.9715,-46.1708,
1.4420,-0.1038,-0.0161,1.0197,-0.0311,-0.0266,-0.0035,0.0239,-0.0162,0.0042,-9.6906,1.9715,-46.1708,
1.4580,-0.1038,-0.0161,1.0197,-0.0311,-0.0266,-0.0035,0.0370,0.0425,0.0015,-9.6906,1.9715,-46.1708,
1.4580,-0.1044,-0.0154,1.0221,-0.0311,-0.0266,-0.0035,0.0370,0.0425,0.0015,-9.6906,1.9715,-46.1708,
1.4590,-0.1044,-0.0154,1.0221,-0.0053,-0.0620,-0.0348,0.0370,0.0425,0.0015,-9.6906,1.9715,-46.1708,
1.4880,-0.1044,-0.0154,1.0221,-0.0053,-0.0620,-0.0348,0.0370,0.0425,0.0015,-9.7025,1.9591,-46.2362,
1.4910,-0.1066,-0.0149,1.0210,-0.0053,-0.0620,-0.0348,0.0370,0.0425,0.0015,-9.7025,1.9591,-46.2362,
1.5090,-0.1096,-0.0151,1.0189,-0.0053,-0.0620,-0.0348,0.0370,0.0425,0.0015,-9.7025,1.9591,-46.2362,
1.5090,-0.1096,-0.0151,1.0189,-0.0053,-0.0620,-0.0348,0.0324,0.0272,0.0009,-9.7025,1.9591,-46.2362,
1.5160,-0.1090,-0.0157,1.0153,-0.0053,-0.0620,-0.0348,0.0324,0.0272,0.0009,-9.7025,1.9591,-46.2362,
1.5170,-0.1090,-0.0157,1.0153,0.0287,-0.0915,-0.0006,0.0324,0.0272,0.0009,-9.7025,1.9591,-46.2362,
1.5550,-0.1090,-0.0157,1.0153,0.0287,-0.0915,-0.0006,0.0233,-0.0394,-0.0003,-9.7025,1.9591,-46.2362,
1.5570,-0.1090,-0.0157,1.0153,0.0287,-0.0915,-0.0006,0.0233,-0.0394,-0.0003,-9.7278,1.9380,-46.2512,
1.5580,-0.1080,-0.0152,1.0114,0.0287,-0.0915,-0.0006,0.0233,-0.0394,-0.0003,-9.7278,1.9380,-46.2512,
1.5770,-0.1080,-0.0152,1.0114,0.0287,-0.0915,-0.0006,0.0153,-0.0305,-0.0003,-9.7278,1.9380,-46.2512,
1.5790,-0.1046,-0.0149,1.0111,0.0287,-0.0915,-0.0006,0.0153,-0.0305,-0.0003,-9.7278,1.9380,-46.2512,
1.5800,-0.1042,-0.0134,1.0115,0.0287,-0.0915,-0.0006,0.0153,-0.0305,-0.0003,-9.7278,1.9380,-46.2512,
1.5960,-0.1042,-0.0134,1.0115,-0.0236,-0.0795,-0.0089,0.0153,-0.0305,-0.0003,-9.7278,1.9380,-46.2512,
1.5970,-0.1042,-0.0130,1.0140,-0.0236,-0.0795,-0.0089,0.0153,-0.0305,-0.0003,-9.7278,1.9380,-46.2512,
1.6210,-0.1042,-0.0130,1.0140,-0.0236,-0.0795,-0.0089,0.0104,0.0024,-0.0003,-9.7278,1.9380,-46.2512,
1.6220,-0.1062,-0.0122,1.0155,-0.0236,-0.0795,-0.0089,0.0104,0.0024,-0.0003,-9.7278,1.9380,-46.2512,
1.6250,-0.1062,-0.0122,1.0155,-0.0236,-0.0795,-0.0089,0.0104,0.0024,-0.0003,-9.7391,1.9464,-46.2768,
1.6420,-0.1081,-0.0114,1.0163,-0.0236,-0.0795,-0.0089,0.0104,0.0024,-0.0003,-9.7391,1.9464,-46.2768,
1.6530,-0.1081,-0.0114,1.0163,0.0056,-0.0629,-0.0564,0.0104,0.0024,-0.0003,-9.7391,1.9464,-46.2768,
1.6550,-0.1081,-0.0114,1.0163,0.0056,-0.0629,-0.0564,0.0040,-0.0107,0.0009,-9.7391,1.9464,-46.2768,
1.6550,-0.1080,-0.0124,1.0191,0.0056,-0.0629,-0.0564,0.0040,-0.0107,0.0009,-9.7391,1.9464,-46.2768,
1.6880,-0.1080,-0.0124,1.0191,0.0056,-0.0629,-0.0564,0.0040,-0.0107,0.0009,-9.7366,1.9955,-46.2737,
1.6900,-0.1076,-0.0121,1.0214,0.0056,-0.0629,-0.0564,0.0040,-0.0107,0.0009,-9.7366,1.9955,-46.2737,
1.7090,-0.1076,-0.0121,1.0214,0.0056,-0.0629,-0.0564,0.0062,-0.0134,0.0003,-9.7366,1.9955,-46.2737,
1.7100,-0.1064,-0.0108,1.0217,0.0056,-0.0629,-0.0564,0.0062,-0.0134,0.0003,-9.7366,1.9955,-46.2737,
1.7320,-0.1064,-0.0108,1.0217,0.0056,-0.0629,-0.0564,0.0135,-0.0131,0.0006,-9.7366,1.9955,-46.2737,
1.7330,-0.1052,-0.0118,1.0199,0.0056,-0.0629,-0.0564,0.0135,-0.0131,0.0006,-9.7366,1.9955,-46.2737,
1.7340,-0.1030,-0.0130,1.0175,0.0056,-0.0629,-0.0564,0.0135,-0.0131,0.0006,-9.7366,1.9955,-46.2737,
1.7360,-0.1030,-0.0130,1.0175,-0.0270,-0.0452,-0.0033,0.0135,-0.0131,0.0006,-9.7366,1.9955,-46.2737,
1.7550,-0.1003,-0.0129,1.0152,-0.0270,-0.0452,-0.0033,0.0135,-0.0131,0.0006,-9.7366,1.9955,-46.2737,
1.7560,-0.1003,-0.0129,1.0152,-0.0270,-0.0452,-0.0033,0.0135,-0.0131,0.0006,-9.7242,1.9846,-46.3253,
1.7760,-0.1020,-0.0144,1.0145,-0.0270,-0.0452,-0.0033,0.0135,-0.0131,0.0006,-9.7242,1.9846,-46.3253,
1.7770,-0.1020,-0.0144,1.0145,-0.0270,-0.0452,-0.0033,0.0165,-0.0012,0.0012,-9.7242,1.9846,-46.3253,
1.7900,-0.1020,-0.0144,1.0145,-0.0041,-0.0503,0.0197,0.0165,-0.0012,0.0012,-9.7242,1.9846,-46.3253,
1.7910,-0.1036,-0.0150,1.0145,-0.0041,-0.0503,0.0197,0.0165,-0.0012,0.0012,-9.7242,1.9846,-46.3253,
1.8210,-0.1051,-0.0143,1.0139,-0.0041,-0.0503,0.0197,0.0165,-0.0012,0.0012,-9.7242,1.9846,-46.3253,
1.8220,-0.1051,-0.0143,1.0139,-0.0041,-0.0503,0.0197,0.0165,-0.0012,0.0012,-9.7886,1.9238,-46.3056,
1.8240,-0.1051,-0.0143,1.0139,-0.0041,-0.0503,0.0197,0.0184,-0.0067,0.0024,-9.7886,1.9238,-46.3056,
1.8430,-0.1060,-0.0130,1.0125,-0.0041,-0.0503,0.0197,0.0184,-0.0067,0.0024,-9.7886,1.9238,-46.3056,
1.8690,-0.1063,-0.0125,1.0161,-0.0041,-0.0503,0.0197,0.0184,-0.0067,0.0024,-9.7886,1.9238,-46.3056,
1.8690,-0.1024,-0.0151,1.0212,-0.0041,-0.0503,0.0197,0.0184,-0.0067,0.0024,-9.7886,1.9238,-46.3056,
1.8700,-0.1024,-0.0151,1.0212,0.0106,-0.0709,-0.0307,0.0184,-0.0067,0.0024,-9.7886,1.9238,-46.3056,
1.8710,-0.1024,-0.0151,1.0212,0.0106,-0.0709,-0.0307,0.0117,-0.0214,-0.0013,-9.7886,1.9238,-46.3056,
1.8880,-0.1024,-0.0151,1.0212,0.0106,-0.0709,-0.0307,0.0123,0.0027,0.0046,-9.7886,1.9238,-46.3056,
1.8890,-0.0956,-0.0161,1.0236,0.0106,-0.0709,-0.0307,0.0123,0.0027,0.0046,-9.7886,1.9238,-46.3056,
1.8900,-0.0956,-0.0161,1.0236,0.0106,-0.0709,-0.0307,0.0123,0.0027,0.0046,-9.8509,1.9023,-46.2835,
1.9090,-0.0961,-0.0135,1.0244,0.0106,-0.0709,-0.0307,0.0123,0.0027,0.0046,-9.8509,1.9023,-46.2835,
1.9270,-0.0961,-0.0135,1.0244,0.0106,-0.0709,-0.0307,0.0181,0.0345,-0.0025,-9.8509,1.9023,-46.2835,
1.9280,-0.1051,-0.0096,1.0247,0.0106,-0.0709,-0.0307,0.0181,0.0345,-0.0025,-9.8509,1.9023,-46.2835,
1.9290,-0.1051,-0.0096,1.0247,-0.0014,-0.0692,-0.0133,0.0181,0.0345,-0.0025,-9.8509,1.9023,-46.2835,
1.9550,-0.1107,-0.0117,1.0192,-0.0014,-0.0692,-0.0133,0.0181,0.0345,-0.0025,-9.8509,1.9023,-46.2835,
1.9560,-0.1107,-0.0117,1.0192,-0.0014,-0.0692,-0.0133,0.0181,0.0345,-0.0025,-9.9260,1.8704,-46.2624,
1.9760,-0.1098,-0.0143,1.0118,-0.0014,-0.0692,-0.0133,0.0181,0.0345,-0.0025,-9.9260,1.8704,-46.2624,
1.9770,-0.1098,-0.0143,1.0118,-0.0014,-0.0692,-0.0133,0.0092,-0.0696,-0.0031,-9.9260,1.8704,-46.2624,
2.0040,-0.1098,-0.0143,1.0118,-0.0177,-0.0579,0.0492,0.0092,-0.0696,-0.0031,-9.9260,1.8704,-46.2624,
2.0050,-0.1098,-0.0143,1.0118,-0.0177,-0.0579,0.0492,0.0077,-0.0959,-0.0028,-9.9260,1.8704,-46.2624,
2.0060,-0.1085,-0.0138,1.0074,-0.0177,-0.0579,0.0492,0.0077,-0.0959,-0.0028,-9.9260,1.8704,-46.2624,
2.0060,-0.1005,-0.0125,1.0102,-0.0177,-0.0579,0.0492,0.0077,-0.0959,-0.0028,-9.9260,1.8704,-46.2624,
2.0200,-0.1005,-0.0125,1.0102,-0.0177,-0.0579,0.0492,0.0077,-0.0959,-0.0028,-10.0376,1.8478,-46.2035,
2.0420,-0.0902,-0.0128,1.0156,-0.0177,-0.0579,0.0492,0.0077,-0.0959,-0.0028,-10.0376,1.8478,-46.2035,
2.0630,-0.0902,-0.0128,1.0156,-0.0177,-0.0579,0.0492,0.0031,0.0147,-0.0013,-10.0376,1.8478,-46.2035,
2.0640,-0.0902,-0.0128,1.0156,-0.0514,-0.0558,-0.0664,0.0031,0.0147,-0.0013,-10.0376,1.8478,-46.2035,
2.0650,-0.0875,-0.0124,1.0174,-0.0514,-0.0558,-0.0664,0.0031,0.0147,-0.0013,-10.0376,1.8478,-46.2035,
2.0660,-0.0922,-0.0132,1.0211,-0.0514,-0.0558,-0.0664,0.0031,0.0147,-0.0013,-10.0376,1.8478,-46.2035,
2.0880,-0.0981,-0.0151,1.0236,-0.0514,-0.0558,-0.0664,0.0031,0.0147,-0.0013,-10.0376,1.8478,-46.2035,
2.0890,-0.0981,-0.0151,1.0236,-0.0514,-0.0558,-0.0664,0.0031,0.0147,-0.0013,-10.0852,1.8649,-46.2169,
2.0900,-0.0981,-0.0151,1.0236,-0.0514,-0.0558,-0.0664,-0.0091,0.0568,-0.0003,-10.0852,1.8649,-46.2169,
2.1090,-0.1044,-0.0176,1.0247,-0.0514,-0.0558,-0.0664,-0.0091,0.0568,-0.0003,-10.0852,1.8649,-46.2169,
2.1420,-0.1048,-0.0182,1.0222,-0.0514,-0.0558,-0.0664,-0.0091,0.0568,-0.0003,-10.0852,1.8649,-46.2169,
2.1430,-0.1048,-0.0182,1.0222,-0.0514,-0.0558,-0.0664,0.0062,0.0021,0.0042,-10.0852,1.8649,-46.2169,
2.1430,-0.1048,-0.0182,1.0222,0.0949,-0.0527,0.0102,0.0062,0.0021,0.0042,-10.0852,1.8649,-46.2169,
2.1440,-0.1020,-0.0179,1.0197,0.0949,-0.0527,0.0102,0.0062,0.0021,0.0042,-10.0852,1.8649,-46.2169,
2.1540,-0.1020,-0.0179,1.0197,0.0949,-0.0527,0.0102,0.0062,0.0021,0.0042,-10.1101,1.8430,-46.2577,
2.1750,-0.1003,-0.0167,1.0169,0.0949,-0.0527,0.0102,0.0062,0.0021,0.0042,-10.1101,1.8430,-46.2577,
2.1760,-0.1003,-0.0167,1.0169,0.0949,-0.0527,0.0102,0.0272,-0.0305,0.0009,-10.1101,1.8430,-46.2577,
2.2010,-0.1003,-0.0167,1.0169,-0.0398,-0.0997,0.0381,0.0272,-0.0305,0.0009,-10.1101,1.8430,-46.2577,
2.2020,-0.1011,-0.0154,1.0153,-0.0398,-0.0997,0.0381,0.0272,-0.0305,0.0009,-10.1101,1.8430,-46.2577,
2.2040,-0.1011,-0.0154,1.0153,-0.0398,-0.0997,0.0381,0.0239,-0.0266,-0.0037,-10.1101,1.8430,-46.2577,
2.2040,-0.1007,-0.0145,1.0148,-0.0398,-0.0997,0.0381,0.0239,-0.0266,-0.0037,-10.1101,1.8430,-46.2577,
2.2210,-0.1007,-0.0145,1.0148,-0.0398,-0.0997,0.0381,0.0239,-0.0266,-0.0037,-10.1231,1.8224,-46.2723,
2.2220,-0.1000,-0.0121,1.0153,-0.0398,-0.0997,0.0381,0.0239,-0.0266,-0.0037,-10.1231,1.8224,-46.2723,
2.2420,-0.1000,-0.0121,1.0153,-0.0398,-0.0997,0.0381,0.0025,-0.0086,-0.0016,-10.1231,1.8224,-46.2723,
2.2430,-0.0964,-0.0094,1.0196,-0.0398,-0.0997,0.0381,0.0025,-0.0086,-0.0016,-10.1231,1.8224,-46.2723,
2.2790,-0.0964,-0.0094,1.0196,-0.0191,-0.0688,-0.0265,0.0025,-0.0086,-0.0016,-10.1231,1.8224,-46.2723,
2.2810,-0.0964,-0.0094,1.0196,-0.0191,-0.0688,-0.0265,0.0037,-0.0095,-0.0000,-10.1231,1.8224,-46.2723,
2.2820,-0.0971,-0.0111,1.0217,-0.0191,-0.0688,-0.0265,0.0037,-0.0095,-0.0000,-10.1231,1.8224,-46.2723,
2.2820,-0.0994,-0.0135,1.0210,-0.0191,-0.0688,-0.0265,0.0037,-0.0095,-0.0000,-10.1231,1.8224,-46.2723,
2.2870,-0.0994,-0.0135,1.0210,-0.0191,-0.0688,-0.0265,0.0037,-0.0095,-0.0000,-10.2080,1.8284,-46.2749,
2.3090,-0.1000,-0.0157,1.0202,-0.0191,-0.0688,-0.0265,0.0037,-0.0095,-0.0000,-10.2080,1.8284,-46.2749,
2.3360,-0.1000,-0.0157,1.0202,-0.0191,-0.0688,-0.0265,0.0230,-0.0125,0.0039,-10.2080,1.8284,-46.2749,
2.3370,-0.0978,-0.0162,1.0174,-0.0191,-0.0688,-0.0265,0.0230,-0.0125,0.0039,-10.2080,1.8284,-46.2749,
2.3380,-0.0969,-0.0151,1.0166,-0.0191,-0.0688,-0.0265,0.0230,-0.0125,0.0039,-10.2080,1.8284,-46.2749,
2.3380,-0.0969,-0.0151,1.0166,0.0060,-0.0434,0.0162,0.0230,-0.0125,0.0039,-10.2080,1.8284,-46.2749,
2.3540,-0.0969,-0.0151,1.0166,0.0060,-0.0434,0.0162,0.0230,-0.0125,0.0039,-10.2085,1.8186,-46.2755,
2.3760,-0.0974,-0.0135,1.0179,0.0060,-0.0434,0.0162,0.0230,-0.0125,0.0039,-10.2085,1.8186,-46.2755,
2.3770,-0.0974,-0.0135,1.0179,0.0060,-0.0434,0.0162,0.0263,0.0027,-0.0009,-10.2085,1.8186,-46.2755,
2.3780,-0.0975,-0.0132,1.0167,0.0060,-0.0434,0.0162,0.0263,0.0027,-0.0009,-10.2085,1.8186,-46.2755,
2.4170,-0.0955,-0.0133,1.0159,0.0060,-0.0434,0.0162,0.0263,0.0027,-0.0009,-10.2085,1.8186,-46.2755,
2.4180,-0.0954,-0.0151,1.0168,0.0060,-0.0434,0.0162,0.0263,0.0027,-0.0009,-10.2085,1.8186,-46.2755,
2.4190,-0.0954,-0.0151,1.0168,0.0060,-0.0434,0.0162,0.0205,-0.0208,-0.0016,-10.2085,1.8186,-46.2755,
2.4190,-0.0954,-0.0151,1.0168,-0.0080,-0.0865,-0.0041,0.0205,-0.0208,-0.0016,-10.2085,1.8186,-46.2755,
2.4200,-0.0954,-0.0151,1.0168,-0.0080,-0.0865,-0.0041,0.0205,-0.0208,-0.0016,-10.2825,1.7953,-46.2924,
2.4420,-0.0954,-0.0151,1.0168,-0.0080,-0.0865,-0.0041,0.0153,-0.0107,0.0021,-10.2825,1.7953,-46.2924,
2.4430,-0.0954,-0.0168,1.0188,-0.0080,-0.0865,-0.0041,0.0153,-0.0107,0.0021,-10.2825,1.7953,-46.2924,
2.4730,-0.0954,-0.0168,1.0188,-0.0080,-0.0865,-0.0041,0.0092,0.0095,0.0009,-10.2825,1.7953,-46.2924,
2.4740,-0.0952,-0.0162,1.0200,-0.0080,-0.0865,-0.0041,0.0092,0.0095,0.0009,-10.2825,1.7953,-46.2924,
2.4740,-0.0967,-0.0144,1.0217,-0.0080,-0.0865,-0.0041,0.0092,0.0095,0.0009,-10.2825,1.7953,-46.2924,
2.4750,-0.0967,-0.0144,1.0217,0.0112,-0.0679,-0.0168,0.0092,0.0095,0.0009,-10.2825,1.7953,-46.2924,
2.4880,-0.0967,-0.0144,1.0217,0.0112,-0.0679,-0.0168,0.0092,0.0095,0.0009,-10.2685,1.8355,-46.2766,
2.5090,-0.0983,-0.0145,1.0211,0.0112,-0.0679,-0.0168,0.0092,0.0095,0.0009,-10.2685,1.8355,-46.2766,
2.5510,-0.0985,-0.0141,1.0229,0.0112,-0.0679,-0.0168,0.0092,0.0095,0.0009,-10.2685,1.8355,-46.2766,
2.5510,-0.0985,-0.0141,1.0229,0.0112,-0.0679,-0.0168,0.0077,-0.0137,-0.0019,-10.2685,1.8355,-46.2766,
2.5520,-0.0985,-0.0141,1.0229,0.0112,-0.0679,-0.0168,0.0129,-0.0254,-0.0006,-10.2685,1.8355,-46.2766,
2.5520,-0.0969,-0.0134,1.0203,0.0112,-0.0679,-0.0168,0.0129,-0.0254,-0.0006,-10.2685,1.8355,-46.2766,
2.5530,-0.0960,-0.0130,1.0192,0.0112,-0.0679,-0.0168,0.0129,-0.0254,-0.0006,-10.2685,1.8355,-46.2766,
2.5530,-0.0960,-0.0130,1.0192,-0.0011,-0.0833,0.0160,0.0129,-0.0254,-0.0006,-10.2685,1.8355,-46.2766,
2.5540,-0.0960,-0.0130,1.0192,-0.0011,-0.0833,0.0160,0.0129,-0.0254,-0.0006,-10.2181,1.8782,-46.2336,
2.5760,-0.0944,-0.0139,1.0203,-0.0011,-0.0833,0.0160,0.0129,-0.0254,-0.0006,-10.2181,1.8782,-46.2336,
2.6100,-0.0944,-0.0134,1.0225,-0.0011,-0.0833,0.0160,0.0129,-0.0254,-0.0006,-10.2181,1.8782,-46.2336,
2.6110,-0.0944,-0.0134,1.0225,-0.0011,-0.0833,0.0160,-0.0015,0.0061,-0.0006,-10.2181,1.8782,-46.2336,
2.6110,-0.0950,-0.0119,1.0213,-0.0011,-0.0833,0.0160,-0.0015,0.0061,-0.0006,-10.2181,1.8782,-46.2336,
2.6120,-0.0950,-0.0119,1.0213,-0.0142,-0.0542,0.0190,-0.0015,0.0061,-0.0006,-10.2181,1.8782,-46.2336,
2.6210,-0.0950,-0.0119,1.0213,-0.0142,-0.0542,0.0190,-0.0015,0.0061,-0.0006,-10.2567,1.8593,-46.1590,
2.6420,-0.0949,-0.0128,1.0203,-0.0142,-0.0542,0.0190,-0.0015,0.0061,-0.0006,-10.2567,1.8593,-46.1590,
2.6430,-0.0949,-0.0128,1.0203,-0.0142,-0.0542,0.0190,-0.0082,-0.0220,-0.0013,-10.2567,1.8593,-46.1590,
2.6880,-0.0949,-0.0128,1.0203,-0.0142,-0.0542,0.0190,0.0117,-0.0446,-0.0003,-10.2567,1.8593,-46.1590,
2.6890,-0.0949,-0.0128,1.0203,-0.0107,-0.0505,0.0190,0.0117,-0.0446,-0.0003,-10.2567,1.8593,-46.1590,
2.6900,-0.0925,-0.0129,1.0166,-0.0107,-0.0505,0.0190,0.0117,-0.0446,-0.0003,-10.2567,1.8593,-46.1590,
2.6910,-0.0904,-0.0158,1.0153,-0.0107,-0.0505,0.0190,0.0117,-0.0446,-0.0003,-10.2567,1.8593,-46.1590,
2.6910,-0.0904,-0.0158,1.0153,-0.0107,-0.0505,0.0190,0.0117,-0.0446,-0.0003,-10.3310,1.8478,-46.1110,
2.6920,-0.0916,-0.0185,1.0157,-0.0107,-0.0505,0.0190,0.0117,-0.0446,-0.0003,-10.3310,1.8478,-46.1110,
2.7080,-0.0916,-0.0185,1.0157,-0.0107,-0.0505,0.0190,0.0294,-0.0150,0.0033,-10.3310,1.8478,-46.1110,
2.7090,-0.0923,-0.0179,1.0161,-0.0107,-0.0505,0.0190,0.0294,-0.0150,0.0033,-10.3310,1.8478,-46.1110,
2.7470,-0.0923,-0.0179,1.0161,-0.0107,-0.0505,0.0190,0.0318,-0.0137,-0.0013,-10.3310,1.8478,-46.1110,
2.7480,-0.0938,-0.0168,1.0156,-0.0107,-0.0505,0.0190,0.0318,-0.0137,-0.0013,-10.3310,1.8478,-46.1110,
2.7500,-0.0938,-0.0168,1.0156,0.0052,-0.0847,-0.0268,0.0318,-0.0137,-0.0013,-10.3310,1.8478,-46.1110,
2.7500,-0.0960,-0.0143,1.0167,0.0052,-0.0847,-0.0268,0.0318,-0.0137,-0.0013,-10.3310,1.8478,-46.1110,
2.7530,-0.0960,-0.0143,1.0167,0.0052,-0.0847,-0.0268,0.0318,-0.0137,-0.0013,-10.3669,1.8556,-46.1246,
2.7750,-0.0937,-0.0146,1.0199,0.0052,-0.0847,-0.0268,0.0318,-0.0137,-0.0013,-10.3669,1.8556,-46.1246,
2.8200,-0.0937,-0.0146,1.0199,0.0052,-0.0847,-0.0268,0.0208,0.0031,0.0027,-10.3669,1.8556,-46.1246,
2.8210,-0.0881,-0.0149,1.0219,0.0052,-0.0847,-0.0268,0.0208,0.0031,0.0027,-10.3669,1.8556,-46.1246,
2.8220,-0.0854,-0.0121,1.0232,0.0052,-0.0847,-0.0268,0.0208,0.0031,0.0027,-10.3669,1.8556,-46.1246,
2.8220,-0.0854,-0.0121,1.0232,0.0052,-0.0847,-0.0268,0.0208,0.0031,0.0027,-10.4170,1.8456,-46.0627,
2.8250,-0.0905,-0.0100,1.0203,0.0052,-0.0847,-0.0268,0.0208,0.0031,0.0027,-10.4170,1.8456,-46.0627,
2.8250,-0.0905,-0.0100,1.0203,-0.0090,-0.0936,-0.0222,0.0208,0.0031,0.0027,-10.4170,1.8456,-46.0627,
2.8260,-0.0905,-0.0100,1.0203,-0.0090,-0.0936,-0.0222,0.0224,0.0113,-0.0013,-10.4170,1.8456,-46.0627,
2.8840,-0.0958,-0.0117,1.0148,-0.0090,-0.0936,-0.0222,0.0224,0.0113,-0.0013,-10.4170,1.8456,-46.0627,
2.8850,-0.0958,-0.0117,1.0148,-0.0090,-0.0936,-0.0222,0.0083,-0.0504,-0.0046,-10.4170,1.8456,-46.0627,
2.8850,-0.0958,-0.0117,1.0148,0.0087,-0.0558,0.0214,0.0083,-0.0504,-0.0046,-10.4170,1.8456,-46.0627,
2.8860,-0.0959,-0.0146,1.0097,0.0087,-0.0558,0.0214,0.0083,-0.0504,-0.0046,-10.4170,1.8456,-46.0627,
2.8870,-0.0947,-0.0149,1.0084,0.0087,-0.0558,0.0214,0.0083,-0.0504,-0.0046,-10.4170,1.8456,-46.0627,
2.8870,-0.0947,-0.0149,1.0084,0.0087,-0.0558,0.0214,0.0083,-0.0504,-0.0046,-10.4868,1.8894,-46.1267,
2.9080,-0.0916,-0.0147,1.0142,0.0087,-0.0558,0.0214,0.0083,-0.0504,-0.0046,-10.4868,1.8894,-46.1267,
2.9090,-0.0916,-0.0147,1.0142,0.0087,-0.0558,0.0214,-0.0042,-0.0501,-0.0028,-10.4868,1.8894,-46.1267,
2.9540,-0.0916,-0.0147,1.0142,0.0087,-0.0558,0.0214,0.0037,0.0287,0.0012,-10.4868,1.8894,-46.1267,
2.9550,-0.0838,-0.0150,1.0212,0.0087,-0.0558,0.0214,0.0037,0.0287,0.0012,-10.4868,1.8894,-46.1267,
2.9550,-0.0810,-0.0151,1.0264,0.0087,-0.0558,0.0214,0.0037,0.0287,0.0012,-10.4868,1.8894,-46.1267,
2.9560,-0.0810,-0.0151,1.0264,0.0087,-0.0558,0.0214,0.0037,0.0287,0.0012,-10.5017,1.8623,-46.0390,
2.9620,-0.0847,-0.0147,1.0271,0.0087,-0.0558,0.0214,0.0037,0.0287,0.0012,-10.5017,1.8623,-46.0390,
2.9620,-0.0847,-0.0147,1.0271,-0.0339,-0.0629,-0.0699,0.0037,0.0287,0.0012,-10.5017,1.8623,-46.0390,
3.0190,-0.0847,-0.0147,1.0271,-0.0339,-0.0629,-0.0699,0.0059,0.0354,-0.0006,-10.5017,1.8623,-46.0390,
3.0200,-0.0886,-0.0158,1.0277,-0.0339,-0.0629,-0.0699,0.0059,0.0354,-0.0006,-10.5017,1.8623,-46.0390,
3.0210,-0.0917,-0.0158,1.0278,-0.0339,-0.0629,-0.0699,0.0059,0.0354,-0.0006,-10.5017,1.8623,-46.0390,
3.0210,-0.0933,-0.0162,1.0257,-0.0339,-0.0629,-0.0699,0.0059,0.0354,-0.0006,-10.5017,1.8623,-46.0390,
3.0210,-0.0933,-0.0162,1.0257,-0.0339,-0.0629,-0.0699,0.0077,-0.0009,0.0006,-10.5017,1.8623,-46.0390,
3.0220,-0.0933,-0.0162,1.0257,0.0694,-0.0678,0.0455,0.0077,-0.0009,0.0006,-10.5017,1.8623,-46.0390,
3.0230,-0.0933,-0.0162,1.0257,0.0694,-0.0678,0.0455,0.0077,-0.0009,0.0006,-10.5378,1.8704,-46.0397,
3.0420,-0.0919,-0.0162,1.0233,0.0694,-0.0678,0.0455,0.0077,-0.0009,0.0006,-10.5378,1.8704,-46.0397,
3.0880,-0.0909,-0.0141,1.0203,0.0694,-0.0678,0.0455,0.0077,-0.0009,0.0006,-10.5378,1.8704,-46.0397,
3.0890,-0.0909,-0.0141,1.0203,0.0694,-0.0678,0.0455,0.0199,-0.0119,-0.0006,-10.5378,1.8704,-46.0397,
3.0900,-0.0902,-0.0143,1.0177,0.0694,-0.0678,0.0455,0.0199,-0.0119,-0.0006,-10.5378,1.8704,-46.0397,
3.0900,-0.0902,-0.0143,1.0177,0.0694,-0.0678,0.0455,0.0199,-0.0119,-0.0006,-10.5737,1.8672,-46.0926,
3.0980,-0.0917,-0.0158,1.0150,0.0694,-0.0678,0.0455,0.0199,-0.0119,-0.0006,-10.5737,1.8672,-46.0926,
3.0990,-0.0917,-0.0158,1.0150,0.0694,-0.0678,0.0455,0.0251,-0.0220,0.0003,-10.5737,1.8672,-46.0926,
3.0990,-0.0917,-0.0158,1.0150,-0.0123,-0.0843,0.0646,0.0251,-0.0220,0.0003,-10.5737,1.8672,-46.0926,
3.1530,-0.0923,-0.0146,1.0151,-0.0123,-0.0843,0.0646,0.0251,-0.0220,0.0003,-10.5737,1.8672,-46.0926,
3.1540,-0.0923,-0.0146,1.0151,-0.0123,-0.0843,0.0646,0.0114,-0.0104,0.0006,-10.5737,1.8672,-46.0926,
3.1550,-0.0923,-0.0146,1.0151,-0.0123,-0.0843,0.0646,0.0114,-0.0104,0.0006,-10.5859,1.8667,-46.0930,
3.1560,-0.0904,-0.0122,1.0194,-0.0123,-0.0843,0.0646,0.0114,-0.0104,0.0006,-10.5859,1.8667,-46.0930,
3.1570,-0.0854,-0.0102,1.0228,-0.0123,-0.0843,0.0646,0.0114,-0.0104,0.0006,-10.5859,1.8667,-46.0930,
3.1570,-0.0854,-0.0102,1.0228,-0.0124,-0.0721,-0.0123,0.0114,-0.0104,0.0006,-10.5859,1.8667,-46.0930,
3.1760,-0.0854,-0.0102,1.0228,-0.0124,-0.0721,-0.0123,0.0043,-0.0003,-0.0019,-10.5859,1.8667,-46.0930,
3.1770,-0.0862,-0.0130,1.0249,-0.0124,-0.0721,-0.0123,0.0043,-0.0003,-0.0019,-10.5859,1.8667,-46.0930,
3.2200,-0.0920,-0.0154,1.0251,-0.0124,-0.0721,-0.0123,0.0043,-0.0003,-0.0019,-10.5859,1.8667,-46.0930,
3.2210,-0.0920,-0.0154,1.0251,-0.0124,-0.0721,-0.0123,0.0205,-0.0003,0.0036,-10.5859,1.8667,-46.0930,
3.2220,-0.0920,-0.0154,1.0251,-0.0124,-0.0721,-0.0123,0.0205,-0.0003,0.0036,-10.6077,1.9147,-46.0908,
3.2230,-0.0942,-0.0168,1.0217,-0.0124,-0.0721,-0.0123,0.0205,-0.0003,0.0036,-10.6077,1.9147,-46.0908,
3.2350,-0.0942,-0.0168,1.0217,0.0097,-0.0533,0.0002,0.0205,-0.0003,0.0036,-10.6077,1.9147,-46.0908,
3.2360,-0.0909,-0.0167,1.0191,0.0097,-0.0533,0.0002,0.0205,-0.0003,0.0036,-10.6077,1.9147,-46.0908,
3.2870,-0.0887,-0.0145,1.0196,0.0097,-0.0533,0.0002,0.0205,-0.0003,0.0036,-10.6077,1.9147,-46.0908,
3.2880,-0.0887,-0.0145,1.0196,0.0097,-0.0533,0.0002,0.0266,0.0052,0.0018,-10.6077,1.9147,-46.0908,
3.2880,-0.0887,-0.0145,1.0196,0.0097,-0.0533,0.0002,0.0266,0.0052,0.0018,-10.6091,1.8958,-46.0663,
3.2890,-0.0870,-0.0133,1.0201,0.0097,-0.0533,0.0002,0.0266,0.0052,0.0018,-10.6091,1.8958,-46.0663,
3.2920,-0.0870,-0.0133,1.0201,0.0097,-0.0533,0.0002,0.0193,0.0027,-0.0013,-10.6091,1.8958,-46.0663,
3.2930,-0.0871,-0.0143,1.0195,0.0097,-0.0533,0.0002,0.0193,0.0027,-0.0013,-10.6091,1.8958,-46.0663,
3.2930,-0.0871,-0.0143,1.0195,-0.0173,-0.0912,0.0236,0.0193,0.0027,-0.0013,-10.6091,1.8958,-46.0663,
3.3560,-0.0865,-0.0139,1.0153,-0.0173,-0.0912,0.0236,0.0193,0.0027,-0.0013,-10.6091,1.8958,-46.0663,
3.3570,-0.0865,-0.0139,1.0153,-0.0173,-0.0912,0.0236,0.0129,-0.0293,0.0003,-10.6091,1.8958,-46.0663,
3.3580,-0.0869,-0.0124,1.0144,-0.0173,-0.0912,0.0236,0.0129,-0.0293,0.0003,-10.6091,1.8958,-46.0663,
3.3590,-0.0865,-0.0125,1.0157,-0.0173,-0.0912,0.0236,0.0129,-0.0293,0.0003,-10.6091,1.8958,-46.0663,
3.3590,-0.0865,-0.0125,1.0157,-0.0173,-0.0912,0.0236,0.0129,-0.0293,0.0003,-10.5593,1.9176,-46.0632,
3.3720,-0.0865,-0.0125,1.0157,-0.0173,-0.0912,0.0236,0.0095,-0.0137,0.0003,-10.5593,1.9176,-46.0632,
3.3740,-0.0894,-0.0130,1.0159,-0.0173,-0.0912,0.0236,0.0095,-0.0137,0.0003,-10.5593,1.9176,-46.0632,
3.3750,-0.0894,-0.0130,1.0159,0.0096,-0.0708,-0.0091,0.0095,-0.0137,0.0003,-10.5593,1.9176,-46.0632,
3.4210,-0.0894,-0.0130,1.0159,0.0096,-0.0708,-0.0091,0.0117,-0.0086,0.0018,-10.5593,1.9176,-46.0632,
3.4220,-0.0875,-0.0158,1.0179,0.0096,-0.0708,-0.0091,0.0117,-0.0086,0.0018,-10.5593,1.9176,-46.0632,
3.4220,-0.0869,-0.0178,1.0191,0.0096,-0.0708,-0.0091,0.0117,-0.0086,0.0018,-10.5593,1.9176,-46.0632,
3.4230,-0.0869,-0.0178,1.0191,0.0096,-0.0708,-0.0091,0.0117,-0.0086,0.0018,-10.5965,1.9286,-45.9739,
3.4290,-0.0881,-0.0165,1.0197,0.0096,-0.0708,-0.0091,0.0117,-0.0086,0.0018,-10.5965,1.9286,-45.9739,
3.4300,-0.0881,-0.0165,1.0197,0.0026,-0.0610,-0.0426,0.0117,-0.0086,0.0018,-10.5965,1.9286,-45.9739,
3.4880,-0.0881,-0.0165,1.0197,0.0026,-0.0610,-0.0426,0.0181,-0.0095,0.0006,-10.5965,1.9286,-45.9739,
3.4890,-0.0883,-0.0150,1.0205,0.0026,-0.0610,-0.0426,0.0181,-0.0095,0.0006,-10.5965,1.9286,-45.9739,
3.4890,-0.0880,-0.0129,1.0207,0.0026,-0.0610,-0.0426,0.0181,-0.0095,0.0006,-10.5965,1.9286,-45.9739,
3.4900,-0.0880,-0.0129,1.0207,0.0026,-0.0610,-0.0426,0.0181,-0.0095,0.0006,-10.6433,1.9547,-46.0125,
3.5080,-0.0876,-0.0125,1.0212,0.0026,-0.0610,-0.0426,0.0181,-0.0095,0.0006,-10.6433,1.9547,-46.0125,
3.5090,-0.0876,-0.0128,1.0222,0.0026,-0.0610,-0.0426,0.0181,-0.0095,0.0006,-10.6433,1.9547,-46.0125,
3.5100,-0.0876,-0.0128,1.0222,-0.0028,-0.0955,-0.0051,0.0181,-0.0095,0.0006,-10.6433,1.9547,-46.0125,
3.5100,-0.0876,-0.0128,1.0222,-0.0028,-0.0955,-0.0051,0.0150,-0.0073,-0.0016,-10.6433,1.9547,-46.0125,
3.5550,-0.0876,-0.0128,1.0222,-0.0028,-0.0955,-0.0051,0.0086,-0.0024,0.0018,-10.6433,1.9547,-46.0125,
3.5560,-0.0860,-0.0135,1.0210,-0.0028,-0.0955,-0.0051,0.0086,-0.0024,0.0018,-10.6433,1.9547,-46.0125,
3.5560,-0.0850,-0.0135,1.0191,-0.0028,-0.0955,-0.0051,0.0086,-0.0024,0.0018,-10.6433,1.9547,-46.0125,
3.5570,-0.0850,-0.0135,1.0191,-0.0028,-0.0955,-0.0051,0.0086,-0.0024,0.0018,-10.6448,1.9363,-45.9751,
3.5660,-0.0837,-0.0143,1.0144,-0.0028,-0.0955,-0.0051,0.0086,-0.0024,0.0018,-10.6448,1.9363,-45.9751,
3.5670,-0.0837,-0.0143,1.0144,-0.0028,-0.0955,-0.0051,0.0104,-0.0134,0.0006,-10.6448,1.9363,-45.9751,
3.5680,-0.0837,-0.0143,1.0144,-0.0100,-0.0594,0.0143,0.0104,-0.0134,0.0006,-10.6448,1.9363,-45.9751,
3.6230,-0.0837,-0.0143,1.0144,-0.0100,-0.0594,0.0143,0.0107,-0.0128,-0.0006,-10.6448,1.9363,-45.9751,
3.6250,-0.0834,-0.0133,1.0119,-0.0100,-0.0594,0.0143,0.0107,-0.0128,-0.0006,-10.6448,1.9363,-45.9751,
3.6260,-0.0834,-0.0133,1.0119,-0.0100,-0.0594,0.0143,0.0107,-0.0128,-0.0006,-10.6455,1.9158,-46.0021,
3.6270,-0.0828,-0.0156,1.0133,-0.0100,-0.0594,0.0143,0.0107,-0.0128,-0.0006,-10.6455,1.9158,-46.0021,
3.6430,-0.0833,-0.0154,1.0135,-0.0100,-0.0594,0.0143,0.0107,-0.0128,-0.0006,-10.6455,1.9158,-46.0021,
3.6450,-0.0870,-0.0151,1.0129,-0.0100,-0.0594,0.0143,0.0107,-0.0128,-0.0006,-10.6455,1.9158,-46.0021,
3.6450,-0.0870,-0.0151,1.0129,-0.0100,-0.0594,0.0143,0.0110,-0.0165,0.0018,-10.6455,1.9158,-46.0021,
3.6460,-0.0870,-0.0151,1.0129,0.0090,-0.0657,-0.0233,0.0110,-0.0165,0.0018,-10.6455,1.9158,-46.0021,
3.6890,-0.0870,-0.0151,1.0129,0.0090,-0.0657,-0.0233,0.0095,-0.0205,0.0012,-10.6455,1.9158,-46.0021,
3.6900,-0.0888,-0.0143,1.0134,0.0090,-0.0657,-0.0233,0.0095,-0.0205,0.0012,-10.6455,1.9158,-46.0021,
3.6900,-0.0888,-0.0143,1.0134,0.0090,-0.0657,-0.0233,0.0095,-0.0205,0.0012,-10.7175,1.9318,-46.0165,
3.6910,-0.0848,-0.0160,1.0180,0.0090,-0.0657,-0.0233,0.0095,-0.0205,0.0012,-10.7175,1.9318,-46.0165,
3.7040,-0.0848,-0.0160,1.0180,0.0106,-0.0770,-0.0577,0.0095,-0.0205,0.0012,-10.7175,1.9318,-46.0165,
3.7050,-0.0779,-0.0150,1.0262,0.0106,-0.0770,-0.0577,0.0095,-0.0205,0.0012,-10.7175,1.9318,-46.0165,
3.7570,-0.0779,-0.0150,1.0262,0.0106,-0.0770,-0.0577,0.0135,0.0287,0.0039,-10.7175,1.9318,-46.0165,
3.7580,-0.0801,-0.0123,1.0313,0.0106,-0.0770,-0.0577,0.0135,0.0287,0.0039,-10.7175,1.9318,-46.0165,
3.7590,-0.0801,-0.0123,1.0313,0.0106,-0.0770,-0.0577,0.0135,0.0287,0.0039,-10.7073,1.8931,-46.0186,
3.7600,-0.0858,-0.0132,1.0308,0.0106,-0.0770,-0.0577,0.0135,0.0287,0.0039,-10.7073,1.8931,-46.0186,
3.7760,-0.0888,-0.0166,1.0224,0.0106,-0.0770,-0.0577,0.0135,0.0287,0.0039,-10.7073,1.8931,-46.0186,
3.7780,-0.0888,-0.0166,1.0224,0.0106,-0.0770,-0.0577,0.0272,-0.0021,-0.0016,-10.7073,1.8931,-46.0186,
3.7810,-0.0888,-0.0166,1.0224,0.0105,-0.0803,0.0161,0.0272,-0.0021,-0.0016,-10.7073,1.8931,-46.0186,
3.7820,-0.0880,-0.0166,1.0108,0.0105,-0.0803,0.0161,0.0272,-0.0021,-0.0016,-10.7073,1.8931,-46.0186,
3.8210,-0.0880,-0.0166,1.0108,0.0105,-0.0803,0.0161,0.0214,-0.0672,0.0015,-10.7073,1.8931,-46.0186,
3.8220,-0.0894,-0.0130,1.0057,0.0105,-0.0803,0.0161,0.0214,-0.0672,0.0015,-10.7073,1.8931,-46.0186,
3.8230,-0.0864,-0.0145,1.0053,0.0105,-0.0803,0.0161,0.0214,-0.0672,0.0015,-10.7073,1.8931,-46.0186,
3.8240,-0.0864,-0.0145,1.0053,0.0105,-0.0803,0.0161,0.0214,-0.0672,0.0015,-10.7429,1.9001,-46.0579,
3.8390,-0.0751,-0.0160,1.0095,0.0105,-0.0803,0.0161,0.0214,-0.0672,0.0015,-10.7429,1.9001,-46.0579,
3.8410,-0.0751,-0.0160,1.0095,-0.0409,-0.0815,0.0301,0.0214,-0.0672,0.0015,-10.7429,1.9001,-46.0579,
3.8420,-0.0751,-0.0160,1.0095,-0.0409,-0.0815,0.0301,0.0123,-0.0342,-0.0013,-10.7429,1.9001,-46.0579,
3.8900,-0.0751,-0.0160,1.0095,-0.0409,-0.0815,0.0301,0.0123,-0.0342,-0.0013,-10.7907,1.9065,-46.0977,
3.8930,-0.0726,-0.0140,1.0175,-0.0409,-0.0815,0.0301,0.0123,-0.0342,-0.0013,-10.7907,1.9065,-46.0977,
3.8940,-0.0726,-0.0140,1.0175,-0.0409,-0.0815,0.0301,-0.0067,0.0455,0.0003,-10.7907,1.9065,-46.0977,
3.8940,-0.0763,-0.0123,1.0255,-0.0409,-0.0815,0.0301,-0.0067,0.0455,0.0003,-10.7907,1.9065,-46.0977,
3.9090,-0.0809,-0.0146,1.0297,-0.0409,-0.0815,0.0301,-0.0067,0.0455,0.0003,-10.7907,1.9065,-46.0977,
3.9180,-0.0809,-0.0146,1.0297,-0.0409,-0.0815,0.0301,-0.0064,0.0260,-0.0009,-10.7907,1.9065,-46.0977,
3.9190,-0.0837,-0.0168,1.0300,-0.0409,-0.0815,0.0301,-0.0064,0.0260,-0.0009,-10.7907,1.9065,-46.0977,
3.9190,-0.0837,-0.0168,1.0300,0.0259,-0.0645,-0.0996,-0.0064,0.0260,-0.0009,-10.7907,1.9065,-46.0977,
3.9550,-0.0854,-0.0173,1.0262,0.0259,-0.0645,-0.0996,-0.0064,0.0260,-0.0009,-10.7907,1.9065,-46.0977,
3.9560,-0.0854,-0.0173,1.0262,0.0259,-0.0645,-0.0996,-0.0064,0.0260,-0.0009,-10.7319,1.8593,-46.1243,
3.9780,-0.0847,-0.0160,1.0214,0.0259,-0.0645,-0.0996,-0.0064,0.0260,-0.0009,-10.7319,1.8593,-46.1243,
3.9790,-0.0847,-0.0160,1.0214,0.0259,-0.0645,-0.0996,0.0181,-0.0089,0.0021,-10.7319,1.8593,-46.1243,
3.9790,-0.0839,-0.0162,1.0200,0.0259,-0.0645,-0.0996,0.0181,-0.0089,0.0021,-10.7319,1.8593,-46.1243,
3.9800,-0.0839,-0.0162,1.0200,0.0369,-0.0698,0.0754,0.0181,-0.0089,0.0021,-10.7319,1.8593,-46.1243,
4.0210,-0.0839,-0.0162,1.0200,0.0369,-0.0698,0.0754,0.0315,-0.0232,0.0006,-10.7319,1.8593,-46.1243,
4.0220,-0.0826,-0.0140,1.0167,0.0369,-0.0698,0.0754,0.0315,-0.0232,0.0006,-10.7319,1.8593,-46.1243,
4.0230,-0.0822,-0.0135,1.0147,0.0369,-0.0698,0.0754,0.0315,-0.0232,0.0006,-10.7319,1.8593,-46.1243,
4.0230,-0.0822,-0.0135,1.0147,0.0369,-0.0698,0.0754,0.0315,-0.0232,0.0006,-10.6950,1.8602,-46.1486,
4.0430,-0.0853,-0.0141,1.0151,0.0369,-0.0698,0.0754,0.0315,-0.0232,0.0006,-10.6950,1.8602,-46.1486,
4.0450,-0.0853,-0.0141,1.0151,0.0369,-0.0698,0.0754,0.0230,-0.0254,-0.0009,-10.6950,1.8602,-46.1486,
4.0580,-0.0853,-0.0141,1.0151,-0.0237,-0.0913,0.0194,0.0230,-0.0254,-0.0009,-10.6950,1.8602,-46.1486,
4.0590,-0.0825,-0.0134,1.0199,-0.0237,-0.0913,0.0194,0.0230,-0.0254,-0.0009,-10.6950,1.8602,-46.1486,
4.0870,-0.0763,-0.0124,1.0272,-0.0237,-0.0913,0.0194,0.0230,-0.0254,-0.0009,-10.6950,1.8602,-46.1486,
4.0880,-0.0763,-0.0124,1.0272,-0.0237,-0.0913,0.0194,0.0230,-0.0254,-0.0009,-10.7308,1.8676,-46.1751,
4.0890,-0.0763,-0.0124,1.0272,-0.0237,-0.0913,0.0194,0.0092,0.0079,0.0015,-10.7308,1.8676,-46.1751,
4.1100,-0.0788,-0.0122,1.0300,-0.0237,-0.0913,0.0194,0.0092,0.0079,0.0015,-10.7308,1.8676,-46.1751,
4.1130,-0.0837,-0.0139,1.0290,-0.0237,-0.0913,0.0194,0.0092,0.0079,0.0015,-10.7308,1.8676,-46.1751,
4.1140,-0.0837,-0.0139,1.0290,-0.0237,-0.0913,0.0194,0.0101,0.0254,0.0027,-10.7308,1.8676,-46.1751,
4.1140,-0.0837,-0.0139,1.0290,0.0006,-0.0651,-0.0269,0.0101,0.0254,0.0027,-10.7308,1.8676,-46.1751,
4.1540,-0.0847,-0.0151,1.0214,0.0006,-0.0651,-0.0269,0.0101,0.0254,0.0027,-10.7308,1.8676,-46.1751,
4.1550,-0.0847,-0.0151,1.0214,0.0006,-0.0651,-0.0269,0.0282,-0.0373,0.0021,-10.7308,1.8676,-46.1751,
4.1550,-0.0838,-0.0138,1.0161,0.0006,-0.0651,-0.0269,0.0282,-0.0373,0.0021,-10.7308,1.8676,-46.1751,
4.1560,-0.0838,-0.0138,1.0161,0.0006,-0.0651,-0.0269,0.0282,-0.0373,0.0021,-10.7546,1.8873,-46.1362,
4.1760,-0.0803,-0.0145,1.0144,0.0006,-0.0651,-0.0269,0.0282,-0.0373,0.0021,-10.7546,1.8873,-46.1362,
4.1930,-0.0803,-0.0145,1.0144,0.0006,-0.0651,-0.0269,0.0315,-0.0153,-0.0000,-10.7546,1.8873,-46.1362,
4.1940,-0.0777,-0.0146,1.0153,0.0006,-0.0651,-0.0269,0.0315,-0.0153,-0.0000,-10.7546,1.8873,-46.1362,
4.1950,-0.0777,-0.0146,1.0153,0.0081,-0.0734,0.0741,0.0315,-0.0153,-0.0000,-10.7546,1.8873,-46.1362,
4.2210,-0.0777,-0.0146,1.0153,0.0081,-0.0734,0.0741,0.0315,-0.0153,-0.0000,-10.7431,1.8895,-46.0843,
4.2220,-0.0773,-0.0138,1.0153,0.0081,-0.0734,0.0741,0.0315,-0.0153,-0.0000,-10.7431,1.8895,-46.0843,
4.2440,-0.0767,-0.0128,1.0145,0.0081,-0.0734,0.0741,0.0315,-0.0153,-0.0000,-10.7431,1.8895,-46.0843,
4.2460,-0.0767,-0.0128,1.0145,0.0081,-0.0734,0.0741,0.0190,-0.0177,-0.0009,-10.7431,1.8895,-46.0843,
4.2500,-0.0767,-0.0128,1.0145,-0.0074,-0.0827,-0.0404,0.0190,-0.0177,-0.0009,-10.7431,1.8895,-46.0843,
4.2510,-0.0782,-0.0116,1.0155,-0.0074,-0.0827,-0.0404,0.0190,-0.0177,-0.0009,-10.7431,1.8895,-46.0843,
4.2890,-0.0805,-0.0118,1.0185,-0.0074,-0.0827,-0.0404,0.0190,-0.0177,-0.0009,-10.7431,1.8895,-46.0843,
4.2910,-0.0805,-0.0118,1.0185,-0.0074,-0.0827,-0.0404,0.0190,-0.0177,-0.0009,-10.7567,1.8591,-46.0995,
4.2920,-0.0805,-0.0118,1.0185,-0.0074,-0.0827,-0.0404,0.0065,-0.0092,-0.0025,-10.7567,1.8591,-46.0995,
4.3090,-0.0812,-0.0127,1.0201,-0.0074,-0.0827,-0.0404,0.0065,-0.0092,-0.0025,-10.7567,1.8591,-46.0995,
4.3100,-0.0812,-0.0152,1.0207,-0.0074,-0.0827,-0.0404,0.0065,-0.0092,-0.0025,-10.7567,1.8591,-46.0995,
4.3110,-0.0812,-0.0152,1.0207,-0.0074,-0.0827,-0.0404,0.0117,-0.0086,0.0015,-10.7567,1.8591,-46.0995,
4.3280,-0.0812,-0.0152,1.0207,0.0143,-0.0660,-0.0393,0.0117,-0.0086,0.0015,-10.7567,1.8591,-46.0995,
4.3290,-0.0803,-0.0157,1.0199,0.0143,-0.0660,-0.0393,0.0117,-0.0086,0.0015,-10.7567,1.8591,-46.0995,
4.3550,-0.0803,-0.0157,1.0199,0.0143,-0.0660,-0.0393,0.0214,-0.0296,0.0009,-10.7567,1.8591,-46.0995,
4.3560,-0.0803,-0.0157,1.0199,0.0143,-0.0660,-0.0393,0.0214,-0.0296,0.0009,-10.7668,1.9088,-46.0582,
4.3570,-0.0794,-0.0141,1.0173,0.0143,-0.0660,-0.0393,0.0214,-0.0296,0.0009,-10.7668,1.9088,-46.0582,
4.3770,-0.0796,-0.0118,1.0158,0.0143,-0.0660,-0.0393,0.0214,-0.0296,0.0009,-10.7668,1.9088,-46.0582,
4.3870,-0.0796,-0.0118,1.0158,0.0143,-0.0660,-0.0393,0.0199,-0.0183,-0.0016,-10.7668,1.9088,-46.0582,
4.3870,-0.0784,-0.0132,1.0180,0.0143,-0.0660,-0.0393,0.0199,-0.0183,-0.0016,-10.7668,1.9088,-46.0582,
4.3880,-0.0784,-0.0132,1.0180,-0.0266,-0.0850,0.0030,0.0199,-0.0183,-0.0016,-10.7668,1.9088,-46.0582,
4.4210,-0.0777,-0.0119,1.0200,-0.0266,-0.0850,0.0030,0.0199,-0.0183,-0.0016,-10.7668,1.9088,-46.0582,
4.4220,-0.0777,-0.0119,1.0200,-0.0266,-0.0850,0.0030,0.0199,-0.0183,-0.0016,-10.7920,1.9097,-45.9948,
4.4440,-0.0777,-0.0119,1.0200,-0.0266,-0.0850,0.0030,0.0046,0.0134,-0.0013,-10.7920,1.9097,-45.9948,
4.4460,-0.0801,-0.0091,1.0214,-0.0266,-0.0850,0.0030,0.0046,0.0134,-0.0013,-10.7920,1.9097,-45.9948,
4.4650,-0.0801,-0.0091,1.0214,-0.0266,-0.0850,0.0030,0.0034,-0.0058,0.0003,-10.7920,1.9097,-45.9948,
4.4660,-0.0800,-0.0105,1.0213,-0.0266,-0.0850,0.0030,0.0034,-0.0058,0.0003,-10.7920,1.9097,-45.9948,
4.4660,-0.0739,-0.0124,1.0201,-0.0266,-0.0850,0.0030,0.0034,-0.0058,0.0003,-10.7920,1.9097,-45.9948,
4.4670,-0.0739,-0.0124,1.0201,-0.0030,-0.0664,-0.0212,0.0034,-0.0058,0.0003,-10.7920,1.9097,-45.9948,
4.4880,-0.0739,-0.0124,1.0201,-0.0030,-0.0664,-0.0212,0.0034,-0.0058,0.0003,-10.8146,1.9487,-45.9675,
4.4890,-0.0717,-0.0125,1.0173,-0.0030,-0.0664,-0.0212,0.0034,-0.0058,0.0003,-10.8146,1.9487,-45.9675,
4.5090,-0.0717,-0.0125,1.0173,-0.0030,-0.0664,-0.0212,0.0144,0.0031,0.0076,-10.8146,1.9487,-45.9675,
4.5100,-0.0759,-0.0118,1.0166,-0.0030,-0.0664,-0.0212,0.0144,0.0031,0.0076,-10.8146,1.9487,-45.9675,
4.5230,-0.0774,-0.0132,1.0153,-0.0030,-0.0664,-0.0212,0.0144,0.0031,0.0076,-10.8146,1.9487,-45.9675,
4.5240,-0.0774,-0.0132,1.0153,-0.0010,-0.0523,0.0136,0.0144,0.0031,0.0076,-10.8146,1.9487,-45.9675,
4.5540,-0.0783,-0.0154,1.0111,-0.0010,-0.0523,0.0136,0.0144,0.0031,0.0076,-10.8146,1.9487,-45.9675,
4.5550,-0.0783,-0.0154,1.0111,-0.0010,-0.0523,0.0136,0.0266,-0.0272,0.0055,-10.8146,1.9487,-45.9675,
4.5560,-0.0783,-0.0154,1.0111,-0.0010,-0.0523,0.0136,0.0266,-0.0272,0.0055,-10.8627,1.9670,-45.9423,
4.5770,-0.0768,-0.0151,1.0104,-0.0010,-0.0523,0.0136,0.0266,-0.0272,0.0055,-10.8627,1.9670,-45.9423,
4.6010,-0.0768,-0.0151,1.0104,0.0169,-0.0756,-0.0348,0.0266,-0.0272,0.0055,-10.8627,1.9670,-45.9423,
4.6020,-0.0776,-0.0145,1.0142,0.0169,-0.0756,-0.0348,0.0266,-0.0272,0.0055,-10.8627,1.9670,-45.9423,
4.6030,-0.0776,-0.0145,1.0142,0.0169,-0.0756,-0.0348,0.0224,-0.0186,0.0027,-10.8627,1.9670,-45.9423,
4.6040,-0.0776,-0.0127,1.0238,0.0169,-0.0756,-0.0348,0.0224,-0.0186,0.0027,-10.8627,1.9670,-45.9423,
4.6210,-0.0755,-0.0100,1.0326,0.0169,-0.0756,-0.0348,0.0224,-0.0186,0.0027,-10.8627,1.9670,-45.9423,
4.6220,-0.0755,-0.0100,1.0326,0.0169,-0.0756,-0.0348,0.0004,0.0421,0.0033,-10.8627,1.9670,-45.9423,
4.6230,-0.0755,-0.0100,1.0326,0.0169,-0.0756,-0.0348,0.0004,0.0421,0.0033,-10.9357,1.9633,-45.9580,
4.6430,-0.0752,-0.0081,1.0357,0.0169,-0.0756,-0.0348,0.0004,0.0421,0.0033,-10.9357,1.9633,-45.9580,
4.6600,-0.0752,-0.0081,1.0357,0.0118,-0.0827,-0.0327,0.0004,0.0421,0.0033,-10.9357,1.9633,-45.9580,
4.6610,-0.0752,-0.0081,1.0357,0.0118,-0.0827,-0.0327,0.0046,0.0250,0.0006,-10.9357,1.9633,-45.9580,
4.6620,-0.0803,-0.0091,1.0311,0.0118,-0.0827,-0.0327,0.0046,0.0250,0.0006,-10.9357,1.9633,-45.9580,
4.6880,-0.0803,-0.0091,1.0311,0.0118,-0.0827,-0.0327,0.0046,0.0250,0.0006,-10.9600,1.9618,-45.9717,
4.6890,-0.0818,-0.0124,1.0150,0.0118,-0.0827,-0.0327,0.0046,0.0250,0.0006,-10.9600,1.9618,-45.9717,
4.7090,-0.0784,-0.0150,1.0059,0.0118,-0.0827,-0.0327,0.0046,0.0250,0.0006,-10.9600,1.9618,-45.9717,
4.7110,-0.0784,-0.0150,1.0059,0.0118,-0.0827,-0.0327,0.0141,-0.0739,0.0015,-10.9600,1.9618,-45.9717,
4.7380,-0.0766,-0.0150,1.0065,0.0118,-0.0827,-0.0327,0.0141,-0.0739,0.0015,-10.9600,1.9618,-45.9717,
4.7390,-0.0750,-0.0163,1.0142,0.0118,-0.0827,-0.0327,0.0141,-0.0739,0.0015,-10.9600,1.9618,-45.9717,
4.7390,-0.0750,-0.0163,1.0142,-0.0216,-0.0336,0.1058,0.0141,-0.0739,0.0015,-10.9600,1.9618,-45.9717,
4.7400,-0.0750,-0.0163,1.0142,-0.0216,-0.0336,0.1058,-0.0024,-0.0229,0.0018,-10.9600,1.9618,-45.9717,
4.7550,-0.0750,-0.0163,1.0142,-0.0216,-0.0336,0.1058,-0.0024,-0.0229,0.0018,-10.9954,1.9794,-45.9847,
4.7780,-0.0749,-0.0165,1.0277,-0.0216,-0.0336,0.1058,-0.0024,-0.0229,0.0018,-10.9954,1.9794,-45.9847,
4.7790,-0.0749,-0.0165,1.0277,-0.0216,-0.0336,0.1058,-0.0131,0.0870,0.0024,-10.9954,1.9794,-45.9847,
4.7960,-0.0749,-0.0165,1.0277,0.0163,-0.0737,-0.0944,-0.0131,0.0870,0.0024,-10.9954,1.9794,-45.9847,
4.7970,-0.0772,-0.0147,1.0399,0.0163,-0.0737,-0.0944,-0.0131,0.0870,0.0024,-10.9954,1.9794,-45.9847,
4.7980,-0.0740,-0.0150,1.0385,0.0163,-0.0737,-0.0944,-0.0131,0.0870,0.0024,-10.9954,1.9794,-45.9847,
4.8210,-0.0679,-0.0180,1.0305,0.0163,-0.0737,-0.0944,-0.0131,0.0870,0.0024,-10.9954,1.9794,-45.9847,
4.8210,-0.0679,-0.0180,1.0305,0.0163,-0.0737,-0.0944,-0.0021,-0.0012,0.0033,-10.9954,1.9794,-45.9847,
4.8220,-0.0679,-0.0180,1.0305,0.0163,-0.0737,-0.0944,-0.0021,-0.0012,0.0033,-11.0908,2.0254,-45.9467,
4.8420,-0.0682,-0.0200,1.0266,0.0163,-0.0737,-0.0944,-0.0021,-0.0012,0.0033,-11.0908,2.0254,-45.9467,
4.8740,-0.0726,-0.0183,1.0210,0.0163,-0.0737,-0.0944,-0.0021,-0.0012,0.0033,-11.0908,2.0254,-45.9467,
4.8750,-0.0779,-0.0185,1.0152,0.0163,-0.0737,-0.0944,-0.0021,-0.0012,0.0033,-11.0908,2.0254,-45.9467,
4.8760,-0.0779,-0.0185,1.0152,0.0163,-0.0737,-0.0944,0.0165,-0.0043,0.0049,-11.0908,2.0254,-45.9467,
4.8760,-0.0779,-0.0185,1.0152,0.0346,-0.0821,0.1400,0.0165,-0.0043,0.0049,-11.0908,2.0254,-45.9467,
4.8880,-0.0779,-0.0185,1.0152,0.0346,-0.0821,0.1400,0.0165,-0.0043,0.0049,-11.1410,2.0044,-45.9241,
4.9090,-0.0822,-0.0177,1.0119,0.0346,-0.0821,0.1400,0.0165,-0.0043,0.0049,-11.1410,2.0044,-45.9241,
4.9100,-0.0822,-0.0177,1.0119,0.0346,-0.0821,0.1400,0.0358,-0.0159,0.0018,-11.1410,2.0044,-45.9241,
4.9340,-0.0822,-0.0177,1.0119,0.0359,-0.1187,0.0103,0.0358,-0.0159,0.0018,-11.1410,2.0044,-45.9241,
4.9360,-0.0822,-0.0177,1.0119,0.0359,-0.1187,0.0103,0.0269,-0.0318,-0.0000,-11.1410,2.0044,-45.9241,
4.9360,-0.0820,-0.0147,1.0120,0.0359,-0.1187,0.0103,0.0269,-0.0318,-0.0000,-11.1410,2.0044,-45.9241,
4.9370,-0.0776,-0.0114,1.0151,0.0359,-0.1187,0.0103,0.0269,-0.0318,-0.0000,-11.1410,2.0044,-45.9241,
4.9560,-0.0768,-0.0116,1.0192,0.0359,-0.1187,0.0103,0.0269,-0.0318,-0.0000,-11.1410,2.0044,-45.9241,
4.9570,-0.0768,-0.0116,1.0192,0.0359,-0.1187,0.0103,0.0269,-0.0318,-0.0000,-11.1420,1.9847,-45.9253,
4.9760,-0.0756,-0.0106,1.0256,0.0359,-0.1187,0.0103,0.0269,-0.0318,-0.0000,-11.1420,1.9847,-45.9253,
4.9770,-0.0756,-0.0106,1.0256,0.0359,-0.1187,0.0103,0.0004,0.0043,-0.0025,-11.1420,1.9847,-45.9253,
5.0120,-0.0756,-0.0106,1.0256,0.0359,-0.1187,0.0103,-0.0116,0.0293,-0.0040,-11.1420,1.9847,-45.9253,
5.0130,-0.0726,-0.0091,1.0319,0.0359,-0.1187,0.0103,-0.0116,0.0293,-0.0040,-11.1420,1.9847,-45.9253,
5.0140,-0.0762,-0.0097,1.0334,0.0359,-0.1187,0.0103,-0.0116,0.0293,-0.0040,-11.1420,1.9847,-45.9253,
5.0140,-0.0762,-0.0097,1.0334,-0.0258,-0.0595,-0.0622,-0.0116,0.0293,-0.0040,-11.1420,1.9847,-45.9253,
5.0220,-0.0762,-0.0097,1.0334,-0.0258,-0.0595,-0.0622,-0.0116,0.0293,-0.0040,-11.2033,1.9828,-45.9019,
5.0420,-0.0840,-0.0136,1.0274,-0.0258,-0.0595,-0.0622,-0.0116,0.0293,-0.0040,-11.2033,1.9828,-45.9019,
5.0700,-0.0840,-0.0136,1.0274,0.0126,-0.0307,0.0768,-0.0116,0.0293,-0.0040,-11.2033,1.9828,-45.9019,
5.0720,-0.0840,-0.0136,1.0274,0.0126,-0.0307,0.0768,0.0162,-0.0101,-0.0019,-11.2033,1.9828,-45.9019,
5.0720,-0.0860,-0.0160,1.0197,0.0126,-0.0307,0.0768,0.0162,-0.0101,-0.0019,-11.2033,1.9828,-45.9019,
5.0730,-0.0798,-0.0151,1.0131,0.0126,-0.0307,0.0768,0.0162,-0.0101,-0.0019,-11.2033,1.9828,-45.9019,
5.0880,-0.0798,-0.0151,1.0131,0.0126,-0.0307,0.0768,0.0162,-0.0101,-0.0019,-11.2155,1.9713,-45.9416,
5.1090,-0.0798,-0.0151,1.0131,0.0126,-0.0307,0.0768,0.0333,-0.0104,0.0024,-11.2155,1.9713,-45.9416,
5.1100,-0.0718,-0.0155,1.0157,0.0126,-0.0307,0.0768,0.0333,-0.0104,0.0024,-11.2155,1.9713,-45.9416,
5.1110,-0.0674,-0.0157,1.0244,0.0126,-0.0307,0.0768,0.0333,-0.0104,0.0024,-11.2155,1.9713,-45.9416,
5.1480,-0.0674,-0.0157,1.0244,0.0126,-0.0307,0.0768,0.0178,0.0287,0.0030,-11.2155,1.9713,-45.9416,
5.1490,-0.0672,-0.0150,1.0297,0.0126,-0.0307,0.0768,0.0178,0.0287,0.0030,-11.2155,1.9713,-45.9416,
5.1490,-0.0733,-0.0145,1.0321,0.0126,-0.0307,0.0768,0.0178,0.0287,0.0030,-11.2155,1.9713,-45.9416,
5.1500,-0.0733,-0.0145,1.0321,-0.0338,-0.0802,-0.0158,0.0178,0.0287,0.0030,-11.2155,1.9713,-45.9416,
5.1540,-0.0733,-0.0145,1.0321,-0.0338,-0.0802,-0.0158,0.0178,0.0287,0.0030,-11.2051,1.9652,-45.8388,
5.1760,-0.0811,-0.0140,1.0277,-0.0338,-0.0802,-0.0158,0.0178,0.0287,0.0030,-11.2051,1.9652,-45.8388,
5.1770,-0.0811,-0.0140,1.0277,-0.0338,-0.0802,-0.0158,0.0071,0.0058,-0.0028,-11.2051,1.9652,-45.8388,
5.2070,-0.0817,-0.0156,1.0201,-0.0338,-0.0802,-0.0158,0.0071,0.0058,-0.0028,-11.2051,1.9652,-45.8388,
5.2090,-0.0726,-0.0166,1.0119,-0.0338,-0.0802,-0.0158,0.0071,0.0058,-0.0028,-11.2051,1.9652,-45.8388,
5.2090,-0.0726,-0.0166,1.0119,-0.0338,-0.0802,-0.0158,0.0071,-0.0476,-0.0034,-11.2051,1.9652,-45.8388,
5.2100,-0.0726,-0.0166,1.0119,0.0574,-0.0776,0.0539,0.0071,-0.0476,-0.0034,-11.2051,1.9652,-45.8388,
5.2210,-0.0726,-0.0166,1.0119,0.0574,-0.0776,0.0539,0.0071,-0.0476,-0.0034,-11.2310,1.9567,-45.7632,
5.2430,-0.0654,-0.0177,1.0098,0.0574,-0.0776,0.0539,0.0071,-0.0476,-0.0034,-11.2310,1.9567,-45.7632,
5.2850,-0.0693,-0.0179,1.0162,0.0574,-0.0776,0.0539,0.0071,-0.0476,-0.0034,-11.2310,1.9567,-45.7632,
5.2860,-0.0774,-0.0160,1.0235,0.0574,-0.0776,0.0539,0.0071,-0.0476,-0.0034,-11.2310,1.9567,-45.7632,
5.2870,-0.0818,-0.0129,1.0279,0.0574,-0.0776,0.0539,0.0071,-0.0476,-0.0034,-11.2310,1.9567,-45.7632,
5.2870,-0.0818,-0.0129,1.0279,-0.0028,-0.0796,-0.0274,0.0071,-0.0476,-0.0034,-11.2310,1.9567,-45.7632,
5.2880,-0.0818,-0.0129,1.0279,-0.0028,-0.0796,-0.0274,0.0065,-0.0082,-0.0000,-11.2310,1.9567,-45.7632,
5.2880,-0.0818,-0.0129,1.0279,-0.0028,-0.0796,-0.0274,0.0138,0.0247,-0.0037,-11.2310,1.9567,-45.7632,
5.2880,-0.0818,-0.0129,1.0279,-0.0028,-0.0796,-0.0274,0.0138,0.0247,-0.0037,-11.2192,1.9470,-45.7762,
5.3090,-0.0825,-0.0119,1.0275,-0.0028,-0.0796,-0.0274,0.0138,0.0247,-0.0037,-11.2192,1.9470,-45.7762,
5.3440,-0.0810,-0.0114,1.0239,-0.0028,-0.0796,-0.0274,0.0138,0.0247,-0.0037,-11.2192,1.9470,-45.7762,
5.3450,-0.0785,-0.0118,1.0211,-0.0028,-0.0796,-0.0274,0.0138,0.0247,-0.0037,-11.2192,1.9470,-45.7762,
5.3460,-0.0785,-0.0118,1.0211,-0.0028,-0.0796,-0.0274,0.0159,-0.0357,-0.0046,-11.2192,1.9470,-45.7762,
5.3460,-0.0785,-0.0118,1.0211,-0.0107,-0.0810,-0.0063,0.0159,-0.0357,-0.0046,-11.2192,1.9470,-45.7762,
5.3540,-0.0785,-0.0118,1.0211,-0.0107,-0.0810,-0.0063,0.0159,-0.0357,-0.0046,-11.1828,1.9270,-45.8404,
5.3760,-0.0718,-0.0128,1.0190,-0.0107,-0.0810,-0.0063,0.0159,-0.0357,-0.0046,-11.1828,1.9270,-45.8404,
5.3770,-0.0718,-0.0128,1.0190,-0.0107,-0.0810,-0.0063,0.0086,-0.0467,-0.0058,-11.1828,1.9270,-45.8404,
5.4210,-0.0718,-0.0128,1.0190,-0.0107,-0.0810,-0.0063,0.0074,0.0134,-0.0028,-11.1828,1.9270,-45.8404,
5.4220,-0.0718,-0.0128,1.0190,-0.0476,-0.0417,0.0201,0.0074,0.0134,-0.0028,-11.1828,1.9270,-45.8404,
5.4220,-0.0688,-0.0140,1.0179,-0.0476,-0.0417,0.0201,0.0074,0.0134,-0.0028,-11.1828,1.9270,-45.8404,
5.4220,-0.0704,-0.0146,1.0173,-0.0476,-0.0417,0.0201,0.0074,0.0134,-0.0028,-11.1828,1.9270,-45.8404,
5.4230,-0.0733,-0.0143,1.0183,-0.0476,-0.0417,0.0201,0.0074,0.0134,-0.0028,-11.1828,1.9270,-45.8404,
5.4230,-0.0733,-0.0143,1.0183,-0.0476,-0.0417,0.0201,0.0074,0.0134,-0.0028,-11.2441,1.9141,-45.8562,
5.4430,-0.0734,-0.0150,1.0175,-0.0476,-0.0417,0.0201,0.0074,0.0134,-0.0028,-11.2441,1.9141,-45.8562,
5.4440,-0.0734,-0.0150,1.0175,-0.0476,-0.0417,0.0201,0.0208,0.0159,0.0003,-11.2441,1.9141,-45.8562,
5.4800,-0.0734,-0.0150,1.0175,0.0378,-0.0759,-0.0332,0.0208,0.0159,0.0003,-11.2441,1.9141,-45.8562,
5.4810,-0.0734,-0.0150,1.0175,0.0378,-0.0759,-0.0332,0.0337,0.0034,-0.0000,-11.2441,1.9141,-45.8562,
5.4810,-0.0746,-0.0177,1.0194,0.0378,-0.0759,-0.0332,0.0337,0.0034,-0.0000,-11.2441,1.9141,-45.8562,
5.4820,-0.0746,-0.0184,1.0192,0.0378,-0.0759,-0.0332,0.0337,0.0034,-0.0000,-11.2441,1.9141,-45.8562,
5.4880,-0.0746,-0.0184,1.0192,0.0378,-0.0759,-0.0332,0.0337,0.0034,-0.0000,-11.2651,1.9711,-45.8791,
5.5100,-0.0744,-0.0173,1.0174,0.0378,-0.0759,-0.0332,0.0337,0.0034,-0.0000,-11.2651,1.9711,-45.8791,
5.5550,-0.0744,-0.0173,1.0174,0.0378,-0.0759,-0.0332,0.0196,-0.0180,-0.0009,-11.2651,1.9711,-45.8791,
5.5570,-0.0756,-0.0183,1.0188,0.0378,-0.0759,-0.0332,0.0196,-0.0180,-0.0009,-11.2651,1.9711,-45.8791,
5.5580,-0.0704,-0.0177,1.0250,0.0378,-0.0759,-0.0332,0.0196,-0.0180,-0.0009,-11.2651,1.9711,-45.8791,
5.5580,-0.0704,-0.0177,1.0250,0.0378,-0.0759,-0.0332,0.0196,-0.0180,-0.0009,-11.2638,1.9899,-45.9036,
5.5590,-0.0679,-0.0122,1.0324,0.0378,-0.0759,-0.0332,0.0196,-0.0180,-0.0009,-11.2638,1.9899,-45.9036,
5.5600,-0.0679,-0.0122,1.0324,0.0378,-0.0759,-0.0332,0.0040,0.0159,-0.0009,-11.2638,1.9899,-45.9036,
5.5610,-0.0679,-0.0122,1.0324,0.0030,-0.0987,-0.0223,0.0040,0.0159,-0.0009,-11.2638,1.9899,-45.9036,
5.6180,-0.0718,-0.0085,1.0383,0.0030,-0.0987,-0.0223,0.0040,0.0159,-0.0009,-11.2638,1.9899,-45.9036,
5.6200,-0.0757,-0.0125,1.0321,0.0030,-0.0987,-0.0223,0.0040,0.0159,-0.0009,-11.2638,1.9899,-45.9036,
5.6210,-0.0750,-0.0154,1.0192,0.0030,-0.0987,-0.0223,0.0040,0.0159,-0.0009,-11.2638,1.9899,-45.9036,
5.6210,-0.0750,-0.0154,1.0192,0.0164,-0.0858,0.0280,0.0040,0.0159,-0.0009,-11.2638,1.9899,-45.9036,
5.6220,-0.0750,-0.0154,1.0192,0.0164,-0.0858,0.0280,0.0086,0.0315,-0.0046,-11.2638,1.9899,-45.9036,
5.6230,-0.0750,-0.0154,1.0192,0.0164,-0.0858,0.0280,0.0086,0.0315,-0.0046,-11.2897,1.9594,-45.9064,
5.6430,-0.0759,-0.0160,1.0104,0.0164,-0.0858,0.0280,0.0086,0.0315,-0.0046,-11.2897,1.9594,-45.9064,
5.6450,-0.0759,-0.0160,1.0104,0.0164,-0.0858,0.0280,0.0092,-0.0724,-0.0019,-11.2897,1.9594,-45.9064,
5.6880,-0.0759,-0.0160,1.0104,0.0164,-0.0858,0.0280,0.0083,-0.0327,-0.0083,-11.2897,1.9594,-45.9064,
5.6900,-0.0759,-0.0160,1.0104,0.0164,-0.0858,0.0280,0.0083,-0.0327,-0.0083,-11.2621,2.0079,-45.9538,
5.6900,-0.0799,-0.0152,1.0071,0.0164,-0.0858,0.0280,0.0083,-0.0327,-0.0083,-11.2621,2.0079,-45.9538,
5.6910,-0.0755,-0.0134,1.0126,0.0164,-0.0858,0.0280,0.0083,-0.0327,-0.0083,-11.2621,2.0079,-45.9538,
5.6950,-0.0685,-0.0102,1.0212,0.0164,-0.0858,0.0280,0.0083,-0.0327,-0.0083,-11.2621,2.0079,-45.9538,
5.6960,-0.0685,-0.0102,1.0212,-0.0170,-0.0491,0.0506,0.0083,-0.0327,-0.0083,-11.2621,2.0079,-45.9538,
5.7550,-0.0685,-0.0102,1.0212,-0.0177,-0.0452,-0.0776,0.0083,-0.0327,-0.0083,-11.2621,2.0079,-45.9538,
5.7560,-0.0685,-0.0102,1.0212,-0.0177,-0.0452,-0.0776,-0.0018,0.0452,-0.0022,-11.2621,2.0079,-45.9538,
5.7570,-0.0685,-0.0102,1.0212,-0.0177,-0.0452,-0.0776,-0.0106,-0.0095,-0.0003,-11.2621,2.0079,-45.9538,
5.7570,-0.0672,-0.0099,1.0249,-0.0177,-0.0452,-0.0776,-0.0106,-0.0095,-0.0003,-11.2621,2.0079,-45.9538,
5.7580,-0.0690,-0.0130,1.0257,-0.0177,-0.0452,-0.0776,-0.0106,-0.0095,-0.0003,-11.2621,2.0079,-45.9538,
5.7580,-0.0718,-0.0173,1.0255,-0.0177,-0.0452,-0.0776,-0.0106,-0.0095,-0.0003,-11.2621,2.0079,-45.9538,
5.7590,-0.0718,-0.0173,1.0255,-0.0177,-0.0452,-0.0776,-0.0106,-0.0095,-0.0003,-11.2836,2.0552,-45.9773,
5.7770,-0.0739,-0.0201,1.0273,-0.0177,-0.0452,-0.0776,-0.0106,-0.0095,-0.0003,-11.2836,2.0552,-45.9773,
5.8220,-0.0762,-0.0194,1.0297,-0.0177,-0.0452,-0.0776,-0.0106,-0.0095,-0.0003,-11.2836,2.0552,-45.9773,
5.8230,-0.0768,-0.0174,1.0310,-0.0177,-0.0452,-0.0776,-0.0106,-0.0095,-0.0003,-11.2836,2.0552,-45.9773,
5.8240,-0.0768,-0.0174,1.0310,-0.0177,-0.0452,-0.0776,0.0107,0.0162,0.0006,-11.2836,2.0552,-45.9773,
5.8240,-0.0768,-0.0174,1.0310,-0.0177,-0.0452,-0.0776,0.0107,0.0162,0.0006,-11.3551,2.0809,-45.9910,
5.8300,-0.0768,-0.0174,1.0310,0.0399,-0.0628,0.0394,0.0107,0.0162,0.0006,-11.3551,2.0809,-45.9910,
5.8310,-0.0752,-0.0161,1.0260,0.0399,-0.0628,0.0394,0.0107,0.0162,0.0006,-11.3551,2.0809,-45.9910,
5.8310,-0.0752,-0.0161,1.0260,0.0399,-0.0628,0.0394,0.0300,0.0165,0.0021,-11.3551,2.0809,-45.9910,
5.8890,-0.0734,-0.0171,1.0172,0.0399,-0.0628,0.0394,0.0300,0.0165,0.0021,-11.3551,2.0809,-45.9910,
5.8910,-0.0734,-0.0171,1.0172,0.0399,-0.0628,0.0394,0.0303,-0.0431,0.0006,-11.3551,2.0809,-45.9910,
5.8920,-0.0712,-0.0183,1.0071,0.0399,-0.0628,0.0394,0.0303,-0.0431,0.0006,-11.3551,2.0809,-45.9910,
5.8920,-0.0712,-0.0183,1.0071,0.0399,-0.0628,0.0394,0.0303,-0.0431,0.0006,-11.4036,2.1004,-45.9273,
5.8930,-0.0726,-0.0173,1.0065,0.0399,-0.0628,0.0394,0.0303,-0.0431,0.0006,-11.4036,2.1004,-45.9273,
5.8930,-0.0726,-0.0173,1.0065,-0.0369,-0.1016,0.0629,0.0303,-0.0431,0.0006,-11.4036,2.1004,-45.9273,
5.9110,-0.0726,-0.0173,1.0065,-0.0369,-0.1016,0.0629,0.0120,-0.0144,-0.0006,-11.4036,2.1004,-45.9273,
5.9120,-0.0680,-0.0146,1.0118,-0.0369,-0.1016,0.0629,0.0120,-0.0144,-0.0006,-11.4036,2.1004,-45.9273,
5.9560,-0.0680,-0.0146,1.0118,-0.0369,-0.1016,0.0629,-0.0057,0.0495,-0.0025,-11.4036,2.1004,-45.9273,
5.9570,-0.0680,-0.0146,1.0118,-0.0369,-0.1016,0.0629,-0.0057,0.0495,-0.0025,-11.3672,2.1135,-45.8738,
5.9580,-0.0684,-0.0116,1.0207,-0.0369,-0.1016,0.0629,-0.0057,0.0495,-0.0025,-11.3672,2.1135,-45.8738,
5.9580,-0.0738,-0.0123,1.0274,-0.0369,-0.1016,0.0629,-0.0057,0.0495,-0.0025,-11.3672,2.1135,-45.8738,
5.9670,-0.0738,-0.0123,1.0274,0.0201,-0.0819,-0.1056,-0.0057,0.0495,-0.0025,-11.3672,2.1135,-45.8738,
5.9680,-0.0787,-0.0143,1.0273,0.0201,-0.0819,-0.1056,-0.0057,0.0495,-0.0025,-11.3672,2.1135,-45.8738,
6.0230,-0.0787,-0.0143,1.0273,0.0201,-0.0819,-0.1056,0.0040,-0.0107,0.0003,-11.3672,2.1135,-45.8738,
6.0240,-0.0782,-0.0173,1.0225,0.0201,-0.0819,-0.1056,0.0040,-0.0107,0.0003,-11.3672,2.1135,-45.8738,
6.0240,-0.0748,-0.0184,1.0224,0.0201,-0.0819,-0.1056,0.0040,-0.0107,0.0003,-11.3672,2.1135,-45.8738,
6.0250,-0.0748,-0.0184,1.0224,0.0201,-0.0819,-0.1056,0.0040,-0.0107,0.0003,-11.3918,2.1018,-45.9011,
6.0260,-0.0711,-0.0169,1.0257,0.0201,-0.0819,-0.1056,0.0040,-0.0107,0.0003,-11.3918,2.1018,-45.9011,
6.0270,-0.0711,-0.0169,1.0257,0.0201,-0.0819,-0.1056,0.0138,-0.0006,-0.0009,-11.3918,2.1018,-45.9011,
6.0270,-0.0711,-0.0169,1.0257,0.0100,-0.0422,0.0232,0.0138,-0.0006,-0.0009,-11.3918,2.1018,-45.9011,
6.0900,-0.0711,-0.0169,1.0257,0.0100,-0.0422,0.0232,0.0147,0.0092,-0.0000,-11.3918,2.1018,-45.9011,
6.0920,-0.0706,-0.0161,1.0284,0.0100,-0.0422,0.0232,0.0147,0.0092,-0.0000,-11.3918,2.1018,-45.9011,
6.0920,-0.0709,-0.0155,1.0256,0.0100,-0.0422,0.0232,0.0147,0.0092,-0.0000,-11.3918,2.1018,-45.9011,
6.0930,-0.0698,-0.0151,1.0189,0.0100,-0.0422,0.0232,0.0147,0.0092,-0.0000,-11.3918,2.1018,-45.9011,
6.0930,-0.0698,-0.0151,1.0189,0.0100,-0.0422,0.0232,0.0147,0.0092,-0.0000,-11.3912,2.1116,-45.9005,
6.1030,-0.0710,-0.0163,1.0142,0.0100,-0.0422,0.0232,0.0147,0.0092,-0.0000,-11.3912,2.1116,-45.9005,
6.1050,-0.0710,-0.0163,1.0142,0.0100,-0.0422,0.0232,0.0220,-0.0134,0.0009,-11.3912,2.1116,-45.9005,
6.1060,-0.0710,-0.0163,1.0142,-0.0075,-0.0891,0.0254,0.0220,-0.0134,0.0009,-11.3912,2.1116,-45.9005,
6.1560,-0.0710,-0.0163,1.0142,-0.0075,-0.0891,0.0254,0.0138,0.0040,0.0012,-11.3912,2.1116,-45.9005,
6.1570,-0.0718,-0.0187,1.0137,-0.0075,-0.0891,0.0254,0.0138,0.0040,0.0012,-11.3912,2.1116,-45.9005,
6.1570,-0.0727,-0.0193,1.0162,-0.0075,-0.0891,0.0254,0.0138,0.0040,0.0012,-11.3912,2.1116,-45.9005,
6.1580,-0.0727,-0.0193,1.0162,-0.0075,-0.0891,0.0254,0.0138,0.0040,0.0012,-11.4273,2.1418,-45.8228,
6.1620,-0.0727,-0.0193,1.0162,0.0250,-0.0705,-0.0062,0.0138,0.0040,0.0012,-11.4273,2.1418,-45.8228,
6.1630,-0.0733,-0.0185,1.0214,0.0250,-0.0705,-0.0062,0.0138,0.0040,0.0012,-11.4273,2.1418,-45.8228,
6.2220,-0.0733,-0.0185,1.0214,0.0250,-0.0705,-0.0062,0.0104,0.0006,-0.0003,-11.4273,2.1418,-45.8228,
6.2230,-0.0733,-0.0185,1.0214,0.0250,-0.0705,-0.0062,0.0104,0.0006,-0.0003,-11.4893,2.1195,-45.8263,
6.2260,-0.0733,-0.0185,1.0214,0.0250,-0.0705,-0.0062,0.0169,-0.0140,-0.0009,-11.4893,2.1195,-45.8263,
6.2270,-0.0739,-0.0169,1.0228,0.0250,-0.0705,-0.0062,0.0169,-0.0140,-0.0009,-11.4893,2.1195,-45.8263,
6.2280,-0.0724,-0.0161,1.0225,0.0250,-0.0705,-0.0062,0.0169,-0.0140,-0.0009,-11.4893,2.1195,-45.8263,
6.2290,-0.0744,-0.0169,1.0208,0.0250,-0.0705,-0.0062,0.0169,-0.0140,-0.0009,-11.4893,2.1195,-45.8263,
6.2410,-0.0744,-0.0169,1.0208,-0.0063,-0.0976,-0.0315,0.0169,-0.0140,-0.0009,-11.4893,2.1195,-45.8263,
6.2420,-0.0740,-0.0154,1.0181,-0.0063,-0.0976,-0.0315,0.0169,-0.0140,-0.0009,-11.4893,2.1195,-45.8263,
6.2880,-0.0727,-0.0154,1.0166,-0.0063,-0.0976,-0.0315,0.0169,-0.0140,-0.0009,-11.4893,2.1195,-45.8263,
6.2890,-0.0727,-0.0154,1.0166,-0.0063,-0.0976,-0.0315,0.0135,-0.0180,-0.0028,-11.4893,2.1195,-45.8263,
6.2900,-0.0727,-0.0154,1.0166,-0.0063,-0.0976,-0.0315,0.0135,-0.0180,-0.0028,-11.5148,2.0991,-45.8156,
6.2910,-0.0722,-0.0147,1.0168,-0.0063,-0.0976,-0.0315,0.0135,-0.0180,-0.0028,-11.5148,2.0991,-45.8156,
6.3000,-0.0722,-0.0147,1.0168,-0.0075,-0.0714,-0.0033,0.0135,-0.0180,-0.0028,-11.5148,2.0991,-45.8156,
6.3010,-0.0717,-0.0152,1.0185,-0.0075,-0.0714,-0.0033,0.0135,-0.0180,-0.0028,-11.5148,2.0991,-45.8156,
6.3020,-0.0717,-0.0152,1.0185,-0.0075,-0.0714,-0.0033,0.0049,0.0156,-0.0006,-11.5148,2.0991,-45.8156,
6.3560,-0.0717,-0.0152,1.0185,-0.0075,-0.0714,-0.0033,0.0049,0.0229,0.0012,-11.5148,2.0991,-45.8156,
6.3570,-0.0717,-0.0152,1.0185,-0.0075,-0.0714,-0.0033,0.0049,0.0229,0.0012,-11.4564,2.0638,-45.7773,
6.3580,-0.0721,-0.0167,1.0210,-0.0075,-0.0714,-0.0033,0.0049,0.0229,0.0012,-11.4564,2.0638,-45.7773,
6.3580,-0.0716,-0.0161,1.0240,-0.0075,-0.0714,-0.0033,0.0049,0.0229,0.0012,-11.4564,2.0638,-45.7773,
6.3770,-0.0730,-0.0152,1.0262,-0.0075,-0.0714,-0.0033,0.0049,0.0229,0.0012,-11.4564,2.0638,-45.7773,
6.3780,-0.0723,-0.0174,1.0257,-0.0075,-0.0714,-0.0033,0.0049,0.0229,0.0012,-11.4564,2.0638,-45.7773,
6.3790,-0.0723,-0.0174,1.0257,-0.0075,-0.0714,-0.0033,0.0135,0.0113,-0.0003,-11.4564,2.0638,-45.7773,
6.3790,-0.0723,-0.0174,1.0257,0.0163,-0.0608,-0.0290,0.0135,0.0113,-0.0003,-11.4564,2.0638,-45.7773,
6.4210,-0.0723,-0.0174,1.0257,0.0163,-0.0608,-0.0290,0.0245,-0.0281,0.0015,-11.4564,2.0638,-45.7773,
6.4220,-0.0723,-0.0174,1.0257,0.0163,-0.0608,-0.0290,0.0245,-0.0281,0.0015,-11.4430,2.0836,-45.7884,
6.4230,-0.0730,-0.0189,1.0223,0.0163,-0.0608,-0.0290,0.0245,-0.0281,0.0015,-11.4430,2.0836,-45.7884,
6.4240,-0.0728,-0.0177,1.0163,0.0163,-0.0608,-0.0290,0.0245,-0.0281,0.0015,-11.4430,2.0836,-45.7884,
6.4350,-0.0728,-0.0177,1.0163,-0.0044,-0.0773,0.0345,0.0245,-0.0281,0.0015,-11.4430,2.0836,-45.7884,
6.4370,-0.0743,-0.0149,1.0120,-0.0044,-0.0773,0.0345,0.0245,-0.0281,0.0015,-11.4430,2.0836,-45.7884,
6.4900,-0.0739,-0.0167,1.0133,-0.0044,-0.0773,0.0345,0.0245,-0.0281,0.0015,-11.4430,2.0836,-45.7884,
6.4920,-0.0739,-0.0167,1.0133,-0.0044,-0.0773,0.0345,0.0178,-0.0244,-0.0003,-11.4430,2.0836,-45.7884,
6.4930,-0.0739,-0.0167,1.0133,-0.0044,-0.0773,0.0345,0.0178,-0.0244,-0.0003,-11.4920,2.0818,-45.7774,
6.4940,-0.0682,-0.0177,1.0210,-0.0044,-0.0773,0.0345,0.0178,-0.0244,-0.0003,-11.4920,2.0818,-45.7774,
6.5090,-0.0682,-0.0177,1.0210,-0.0044,-0.0773,0.0345,0.0046,0.0470,0.0039,-11.4920,2.0818,-45.7774,
6.5100,-0.0649,-0.0136,1.0313,-0.0044,-0.0773,0.0345,0.0046,0.0470,0.0039,-11.4920,2.0818,-45.7774,
6.5140,-0.0649,-0.0136,1.0313,0.0138,-0.0783,-0.0414,0.0046,0.0470,0.0039,-11.4920,2.0818,-45.7774,
6.5150,-0.0717,-0.0136,1.0367,0.0138,-0.0783,-0.0414,0.0046,0.0470,0.0039,-11.4920,2.0818,-45.7774,
6.5560,-0.0788,-0.0191,1.0317,0.0138,-0.0783,-0.0414,0.0046,0.0470,0.0039,-11.4920,2.0818,-45.7774,
6.5570,-0.0788,-0.0191,1.0317,0.0138,-0.0783,-0.0414,0.0046,0.0470,0.0039,-11.5315,2.0208,-45.7954,
6.5580,-0.0772,-0.0204,1.0184,0.0138,-0.0783,-0.0414,0.0046,0.0470,0.0039,-11.5315,2.0208,-45.7954,
6.5590,-0.0772,-0.0204,1.0184,0.0138,-0.0783,-0.0414,0.0104,0.0385,-0.0013,-11.5315,2.0208,-45.7954,
6.5730,-0.0778,-0.0168,1.0069,0.0138,-0.0783,-0.0414,0.0104,0.0385,-0.0013,-11.5315,2.0208,-45.7954,
6.5740,-0.0778,-0.0168,1.0069,0.0138,-0.0783,-0.0414,0.0117,-0.0947,-0.0031,-11.5315,2.0208,-45.7954,
6.5750,-0.0778,-0.0168,1.0069,0.0119,-0.0612,0.0572,0.0117,-0.0947,-0.0031,-11.5315,2.0208,-45.7954,
6.6220,-0.0778,-0.0168,1.0069,0.0119,-0.0612,0.0572,0.0004,-0.0464,-0.0043,-11.5315,2.0208,-45.7954,
6.6230,-0.0778,-0.0168,1.0069,0.0119,-0.0612,0.0572,0.0004,-0.0464,-0.0043,-11.5825,1.9798,-45.7869,
6.6240,-0.0784,-0.0152,1.0041,0.0119,-0.0612,0.0572,0.0004,-0.0464,-0.0043,-11.5825,1.9798,-45.7869,
6.6240,-0.0698,-0.0183,1.0079,0.0119,-0.0612,0.0572,0.0004,-0.0464,-0.0043,-11.5825,1.9798,-45.7869,
6.6430,-0.0611,-0.0171,1.0177,0.0119,-0.0612,0.0572,0.0004,-0.0464,-0.0043,-11.5825,1.9798,-45.7869,
6.6510,-0.0611,-0.0171,1.0177,0.0119,-0.0612,0.0572,-0.0183,0.0666,0.0018,-11.5825,1.9798,-45.7869,
6.6520,-0.0614,-0.0139,1.0244,0.0119,-0.0612,0.0572,-0.0183,0.0666,0.0018,-11.5825,1.9798,-45.7869,
6.6530,-0.0614,-0.0139,1.0244,-0.0558,-0.0740,-0.0402,-0.0183,0.0666,0.0018,-11.5825,1.9798,-45.7869,
6.6880,-0.0679,-0.0167,1.0264,-0.0558,-0.0740,-0.0402,-0.0183,0.0666,0.0018,-11.5825,1.9798,-45.7869,
6.6890,-0.0679,-0.0167,1.0264,-0.0558,-0.0740,-0.0402,-0.0183,0.0666,0.0018,-11.5804,2.0191,-45.7844,
6.7090,-0.0757,-0.0204,1.0289,-0.0558,-0.0740,-0.0402,-0.0183,0.0666,0.0018,-11.5804,2.0191,-45.7844,
6.7100,-0.0757,-0.0204,1.0289,-0.0558,-0.0740,-0.0402,-0.0204,0.0345,0.0012,-11.5804,2.0191,-45.7844,
6.7110,-0.0765,-0.0218,1.0313,-0.0558,-0.0740,-0.0402,-0.0204,0.0345,0.0012,-11.5804,2.0191,-45.7844,
6.7110,-0.0765,-0.0218,1.0313,0.0735,-0.0420,-0.0516,-0.0204,0.0345,0.0012,-11.5804,2.0191,-45.7844,
6.7550,-0.0765,-0.0218,1.0313,0.0735,-0.0420,-0.0516,0.0110,0.0095,0.0021,-11.5804,2.0191,-45.7844,
6.7560,-0.0765,-0.0218,1.0313,0.0735,-0.0420,-0.0516,0.0110,0.0095,0.0021,-11.5930,2.0083,-45.7983,
6.7570,-0.0746,-0.0207,1.0302,0.0735,-0.0420,-0.0516,0.0110,0.0095,0.0021,-11.5930,2.0083,-45.7983,
6.7580,-0.0737,-0.0201,1.0269,0.0735,-0.0420,-0.0516,0.0110,0.0095,0.0021,-11.5930,2.0083,-45.7983,
6.7760,-0.0739,-0.0199,1.0222,0.0735,-0.0420,-0.0516,0.0110,0.0095,0.0021,-11.5930,2.0083,-45.7983,
6.7780,-0.0739,-0.0199,1.0222,0.0735,-0.0420,-0.0516,0.0358,-0.0064,0.0003,-11.5930,2.0083,-45.7983,
6.7870,-0.0739,-0.0199,1.0222,-0.0085,-0.0894,0.0778,0.0358,-0.0064,0.0003,-11.5930,2.0083,-45.7983,
6.7880,-0.0751,-0.0200,1.0183,-0.0085,-0.0894,0.0778,0.0358,-0.0064,0.0003,-11.5930,2.0083,-45.7983,
6.8210,-0.0751,-0.0200,1.0183,-0.0085,-0.0894,0.0778,0.0294,-0.0211,-0.0003,-11.5930,2.0083,-45.7983,
6.8220,-0.0740,-0.0191,1.0161,-0.0085,-0.0894,0.0778,0.0294,-0.0211,-0.0003,-11.5930,2.0083,-45.7983,
6.8230,-0.0740,-0.0191,1.0161,-0.0085,-0.0894,0.0778,0.0294,-0.0211,-0.0003,-11.5674,2.0286,-45.8090,
6.8430,-0.0735,-0.0183,1.0183,-0.0085,-0.0894,0.0778,0.0294,-0.0211,-0.0003,-11.5674,2.0286,-45.8090,
6.8450,-0.0683,-0.0162,1.0207,-0.0085,-0.0894,0.0778,0.0294,-0.0211,-0.0003,-11.5674,2.0286,-45.8090,
6.8460,-0.0683,-0.0162,1.0207,-0.0085,-0.0894,0.0778,0.0095,0.0021,0.0015,-11.5674,2.0286,-45.8090,
6.8460,-0.0683,-0.0162,1.0207,-0.0128,-0.0896,0.0198,0.0095,0.0021,0.0015,-11.5674,2.0286,-45.8090,
6.8890,-0.0680,-0.0155,1.0242,-0.0128,-0.0896,0.0198,0.0095,0.0021,0.0015,-11.5674,2.0286,-45.8090,
6.8910,-0.0680,-0.0155,1.0242,-0.0128,-0.0896,0.0198,0.0095,0.0021,0.0015,-11.5789,2.0375,-45.8217,
6.8920,-0.0734,-0.0183,1.0251,-0.0128,-0.0896,0.0198,0.0095,0.0021,0.0015,-11.5789,2.0375,-45.8217,
6.8920,-0.0734,-0.0183,1.0251,-0.0128,-0.0896,0.0198,0.0068,0.0183,-0.0003,-11.5789,2.0375,-45.8217,
6.9080,-0.0761,-0.0202,1.0216,-0.0128,-0.0896,0.0198,0.0068,0.0183,-0.0003,-11.5789,2.0375,-45.8217,
6.9240,-0.0756,-0.0200,1.0181,-0.0128,-0.0896,0.0198,0.0068,0.0183,-0.0003,-11.5789,2.0375,-45.8217,
6.9250,-0.0756,-0.0200,1.0181,-0.0128,-0.0896,0.0198,0.0208,0.0018,0.0009,-11.5789,2.0375,-45.8217,
6.9260,-0.0756,-0.0200,1.0181,0.0195,-0.0657,-0.0207,0.0208,0.0018,0.0009,-11.5789,2.0375,-45.8217,
6.9540,-0.0749,-0.0177,1.0201,0.0195,-0.0657,-0.0207,0.0208,0.0018,0.0009,-11.5789,2.0375,-45.8217,
6.9550,-0.0749,-0.0177,1.0201,0.0195,-0.0657,-0.0207,0.0208,0.0018,0.0009,-11.6023,2.0450,-45.8606,
6.9770,-0.0718,-0.0166,1.0242,0.0195,-0.0657,-0.0207,0.0208,0.0018,0.0009,-11.6023,2.0450,-45.8606,
6.9790,-0.0718,-0.0166,1.0242,0.0195,-0.0657,-0.0207,0.0156,0.0134,-0.0016,-11.6023,2.0450,-45.8606,
6.9820,-0.0718,-0.0166,1.0242,-0.0036,-0.0809,0.0083,0.0156,0.0134,-0.0016,-11.6023,2.0450,-45.8606,
6.9820,-0.0721,-0.0174,1.0264,-0.0036,-0.0809,0.0083,0.0156,0.0134,-0.0016,-11.6023,2.0450,-45.8606,
7.0220,-0.0721,-0.0174,1.0264,-0.0036,-0.0809,0.0083,0.0120,-0.0018,-0.0009,-11.6023,2.0450,-45.8606,
7.0230,-0.0715,-0.0169,1.0252,-0.0036,-0.0809,0.0083,0.0120,-0.0018,-0.0009,-11.6023,2.0450,-45.8606,
7.0230,-0.0723,-0.0174,1.0218,-0.0036,-0.0809,0.0083,0.0120,-0.0018,-0.0009,-11.6023,2.0450,-45.8606,
7.0240,-0.0723,-0.0174,1.0218,-0.0036,-0.0809,0.0083,0.0120,-0.0018,-0.0009,-11.5883,2.0522,-45.9624,
7.0430,-0.0737,-0.0195,1.0196,-0.0036,-0.0809,0.0083,0.0120,-0.0018,-0.0009,-11.5883,2.0522,-45.9624,
7.0440,-0.0737,-0.0195,1.0196,-0.0036,-0.0809,0.0083,0.0196,-0.0058,0.0006,-11.5883,2.0522,-45.9624,
7.0610,-0.0737,-0.0195,1.0196,0.0085,-0.0672,0.0226,0.0196,-0.0058,0.0006,-11.5883,2.0522,-45.9624,
7.0620,-0.0737,-0.0173,1.0194,0.0085,-0.0672,0.0226,0.0196,-0.0058,0.0006,-11.5883,2.0522,-45.9624,
7.0880,-0.0737,-0.0173,1.0194,0.0085,-0.0672,0.0226,0.0144,0.0067,0.0018,-11.5883,2.0522,-45.9624,
7.0890,-0.0737,-0.0189,1.0211,0.0085,-0.0672,0.0226,0.0144,0.0067,0.0018,-11.5883,2.0522,-45.9624,
7.0900,-0.0737,-0.0189,1.0211,0.0085,-0.0672,0.0226,0.0144,0.0067,0.0018,-11.5630,2.0843,-45.9082,
7.1090,-0.0730,-0.0190,1.0221,0.0085,-0.0672,0.0226,0.0144,0.0067,0.0018,-11.5630,2.0843,-45.9082,
7.1190,-0.0730,-0.0190,1.0221,0.0049,-0.0748,-0.0058,0.0144,0.0067,0.0018,-11.5630,2.0843,-45.9082,
7.1200,-0.0730,-0.0190,1.0221,0.0049,-0.0748,-0.0058,0.0159,-0.0009,-0.0006,-11.5630,2.0843,-45.9082,
7.1210,-0.0729,-0.0194,1.0224,0.0049,-0.0748,-0.0058,0.0159,-0.0009,-0.0006,-11.5630,2.0843,-45.9082,
7.1550,-0.0729,-0.0194,1.0224,0.0049,-0.0748,-0.0058,0.0159,-0.0009,-0.0006,-11.5246,2.1146,-45.9306,
7.1560,-0.0741,-0.0183,1.0229,0.0049,-0.0748,-0.0058,0.0159,-0.0009,-0.0006,-11.5246,2.1146,-45.9306,
7.1760,-0.0749,-0.0172,1.0224,0.0049,-0.0748,-0.0058,0.0159,-0.0009,-0.0006,-11.5246,2.1146,-45.9306,
7.1770,-0.0749,-0.0172,1.0224,0.0049,-0.0748,-0.0058,0.0239,-0.0009,-0.0009,-11.5246,2.1146,-45.9306,
7.1970,-0.0749,-0.0172,1.0224,0.0049,-0.0748,-0.0058,0.0178,0.0024,-0.0003,-11.5246,2.1146,-45.9306,
7.1980,-0.0756,-0.0178,1.0232,0.0049,-0.0748,-0.0058,0.0178,0.0024,-0.0003,-11.5246,2.1146,-45.9306,
7.1980,-0.0754,-0.0169,1.0225,0.0049,-0.0748,-0.0058,0.0178,0.0024,-0.0003,-11.5246,2.1146,-45.9306,
7.1990,-0.0754,-0.0169,1.0225,0.0026,-0.0887,0.0046,0.0178,0.0024,-0.0003,-11.5246,2.1146,-45.9306,
7.2210,-0.0744,-0.0176,1.0205,0.0026,-0.0887,0.0046,0.0178,0.0024,-0.0003,-11.5246,2.1146,-45.9306,
7.2220,-0.0744,-0.0176,1.0205,0.0026,-0.0887,0.0046,0.0178,0.0024,-0.0003,-11.4628,2.1153,-45.9927,
7.2420,-0.0727,-0.0184,1.0197,0.0026,-0.0887,0.0046,0.0178,0.0024,-0.0003,-11.4628,2.1153,-45.9927,
7.2440,-0.0727,-0.0184,1.0197,0.0026,-0.0887,0.0046,0.0135,-0.0070,-0.0006,-11.4628,2.1153,-45.9927,
7.2550,-0.0727,-0.0184,1.0197,-0.0130,-0.0744,0.0098,0.0135,-0.0070,-0.0006,-11.4628,2.1153,-45.9927,
7.2560,-0.0721,-0.0179,1.0192,-0.0130,-0.0744,0.0098,0.0135,-0.0070,-0.0006,-11.4628,2.1153,-45.9927,
7.2870,-0.0721,-0.0179,1.0192,-0.0130,-0.0744,0.0098,0.0165,0.0147,-0.0006,-11.4628,2.1153,-45.9927,
7.2890,-0.0721,-0.0179,1.0192,-0.0130,-0.0744,0.0098,0.0165,0.0147,-0.0006,-11.3651,2.1083,-46.0411,
7.2900,-0.0716,-0.0154,1.0194,-0.0130,-0.0744,0.0098,0.0165,0.0147,-0.0006,-11.3651,2.1083,-46.0411,
7.3090,-0.0732,-0.0143,1.0213,-0.0130,-0.0744,0.0098,0.0165,0.0147,-0.0006,-11.3651,2.1083,-46.0411,
7.3340,-0.0732,-0.0143,1.0213,0.0187,-0.0765,-0.0156,0.0165,0.0147,-0.0006,-11.3651,2.1083,-46.0411,
7.3350,-0.0732,-0.0143,1.0213,0.0187,-0.0765,-0.0156,0.0132,0.0238,-0.0022,-11.3651,2.1083,-46.0411,
7.3360,-0.0743,-0.0151,1.0227,0.0187,-0.0765,-0.0156,0.0132,0.0238,-0.0022,-11.3651,2.1083,-46.0411,
7.3360,-0.0745,-0.0176,1.0214,0.0187,-0.0765,-0.0156,0.0132,0.0238,-0.0022,-11.3651,2.1083,-46.0411,
7.3550,-0.0754,-0.0191,1.0179,0.0187,-0.0765,-0.0156,0.0132,0.0238,-0.0022,-11.3651,2.1083,-46.0411,
7.3560,-0.0754,-0.0191,1.0179,0.0187,-0.0765,-0.0156,0.0132,0.0238,-0.0022,-11.2785,2.1313,-46.0494,
7.3570,-0.0754,-0.0191,1.0179,0.0187,-0.0765,-0.0156,0.0190,-0.0137,0.0015,-11.2785,2.1313,-46.0494,
7.3770,-0.0777,-0.0184,1.0144,0.0187,-0.0765,-0.0156,0.0190,-0.0137,0.0015,-11.2785,2.1313,-46.0494,
7.3930,-0.0782,-0.0167,1.0142,0.0187,-0.0765,-0.0156,0.0190,-0.0137,0.0015,-11.2785,2.1313,-46.0494,
7.3940,-0.0782,-0.0167,1.0142,0.0187,-0.0765,-0.0156,0.0233,-0.0360,-0.0016,-11.2785,2.1313,-46.0494,
7.3950,-0.0782,-0.0167,1.0142,-0.0092,-0.0632,-0.0019,0.0233,-0.0360,-0.0016,-11.2785,2.1313,-46.0494,
7.4210,-0.0782,-0.0167,1.0142,-0.0092,-0.0632,-0.0019,0.0233,-0.0360,-0.0016,-11.2638,2.1809,-46.0458,
7.4220,-0.0734,-0.0172,1.0185,-0.0092,-0.0632,-0.0019,0.0233,-0.0360,-0.0016,-11.2638,2.1809,-46.0458,
7.4430,-0.0734,-0.0172,1.0185,-0.0092,-0.0632,-0.0019,0.0123,0.0244,0.0033,-11.2638,2.1809,-46.0458,
7.4450,-0.0645,-0.0162,1.0272,-0.0092,-0.0632,-0.0019,0.0123,0.0244,0.0033,-11.2638,2.1809,-46.0458,
7.4700,-0.0672,-0.0139,1.0345,-0.0092,-0.0632,-0.0019,0.0123,0.0244,0.0033,-11.2638,2.1809,-46.0458,
7.4710,-0.0672,-0.0139,1.0345,-0.0092,-0.0632,-0.0019,0.0193,0.0721,-0.0022,-11.2638,2.1809,-46.0458,
7.4710,-0.0774,-0.0129,1.0340,-0.0092,-0.0632,-0.0019,0.0193,0.0721,-0.0022,-11.2638,2.1809,-46.0458,
7.4720,-0.0774,-0.0129,1.0340,-0.0006,-0.0865,-0.0485,0.0193,0.0721,-0.0022,-11.2638,2.1809,-46.0458,
7.4880,-0.0774,-0.0129,1.0340,-0.0006,-0.0865,-0.0485,0.0193,0.0721,-0.0022,-11.1916,2.1756,-46.0051,
7.5100,-0.0805,-0.0171,1.0221,-0.0006,-0.0865,-0.0485,0.0193,0.0721,-0.0022,-11.1916,2.1756,-46.0051,
7.5110,-0.0783,-0.0188,1.0101,-0.0006,-0.0865,-0.0485,0.0193,0.0721,-0.0022,-11.1916,2.1756,-46.0051,
7.5110,-0.0783,-0.0188,1.0101,-0.0006,-0.0865,-0.0485,0.0254,-0.0583,-0.0013,-11.1916,2.1756,-46.0051,
7.5280,-0.0783,-0.0188,1.0101,0.0123,-0.0609,0.0796,0.0254,-0.0583,-0.0013,-11.1916,2.1756,-46.0051,
7.5300,-0.0810,-0.0162,1.0035,0.0123,-0.0609,0.0796,0.0254,-0.0583,-0.0013,-11.1916,2.1756,-46.0051,
7.5540,-0.0810,-0.0162,1.0035,0.0123,-0.0609,0.0796,0.0254,-0.0583,-0.0013,-11.1670,2.1983,-45.9386,
7.5560,-0.0810,-0.0162,1.0035,0.0123,-0.0609,0.0796,0.0086,-0.0922,-0.0061,-11.1670,2.1983,-45.9386,
7.5560,-0.0778,-0.0157,1.0040,0.0123,-0.0609,0.0796,0.0086,-0.0922,-0.0061,-11.1670,2.1983,-45.9386,
7.5780,-0.0684,-0.0161,1.0129,0.0123,-0.0609,0.0796,0.0086,-0.0922,-0.0061,-11.1670,2.1983,-45.9386,
7.6080,-0.0684,-0.0161,1.0129,0.0123,-0.0609,0.0796,-0.0146,0.0449,-0.0025,-11.1670,2.1983,-45.9386,
7.6100,-0.0612,-0.0155,1.0249,0.0123,-0.0609,0.0796,-0.0146,0.0449,-0.0025,-11.1670,2.1983,-45.9386,
7.6110,-0.0639,-0.0162,1.0339,0.0123,-0.0609,0.0796,-0.0146,0.0449,-0.0025,-11.1670,2.1983,-45.9386,
7.6110,-0.0639,-0.0162,1.0339,-0.0477,-0.0654,-0.0983,-0.0146,0.0449,-0.0025,-11.1670,2.1983,-45.9386,
7.6220,-0.0639,-0.0162,1.0339,-0.0477,-0.0654,-0.0983,-0.0146,0.0449,-0.0025,-11.1165,2.2406,-45.9085,
7.6430,-0.0639,-0.0162,1.0339,-0.0477,-0.0654,-0.0983,-0.0180,0.0874,0.0018,-11.1165,2.2406,-45.9085,
7.6440,-0.0728,-0.0182,1.0367,-0.0477,-0.0654,-0.0983,-0.0180,0.0874,0.0018,-11.1165,2.2406,-45.9085,
7.6650,-0.0728,-0.0182,1.0367,0.1034,-0.0515,0.0075,-0.0180,0.0874,0.0018,-11.1165,2.2406,-45.9085,
7.6670,-0.0728,-0.0182,1.0367,0.1034,-0.0515,0.0075,0.0107,0.0327,0.0039,-11.1165,2.2406,-45.9085,
7.6670,-0.0784,-0.0206,1.0363,0.1034,-0.0515,0.0075,0.0107,0.0327,0.0039,-11.1165,2.2406,-45.9085,
7.6670,-0.0807,-0.0213,1.0329,0.1034,-0.0515,0.0075,0.0107,0.0327,0.0039,-11.1165,2.2406,-45.9085,
7.6870,-0.0794,-0.0188,1.0293,0.1034,-0.0515,0.0075,0.0107,0.0327,0.0039,-11.1165,2.2406,-45.9085,
7.6880,-0.0794,-0.0188,1.0293,0.1034,-0.0515,0.0075,0.0107,0.0327,0.0039,-11.1045,2.2305,-45.9344,
7.7090,-0.0788,-0.0163,1.0252,0.1034,-0.0515,0.0075,0.0107,0.0327,0.0039,-11.1045,2.2305,-45.9344,
7.7110,-0.0788,-0.0163,1.0252,0.1034,-0.0515,0.0075,0.0288,0.0095,-0.0006,-11.1045,2.2305,-45.9344,
7.7450,-0.0778,-0.0169,1.0185,0.1034,-0.0515,0.0075,0.0288,0.0095,-0.0006,-11.1045,2.2305,-45.9344,
7.7460,-0.0777,-0.0165,1.0126,0.1034,-0.0515,0.0075,0.0288,0.0095,-0.0006,-11.1045,2.2305,-45.9344,
7.7470,-0.0777,-0.0165,1.0126,-0.0189,-0.1001,0.1216,0.0288,0.0095,-0.0006,-11.1045,2.2305,-45.9344,
7.7480,-0.0777,-0.0165,1.0126,-0.0189,-0.1001,0.1216,0.0352,-0.0315,-0.0013,-11.1045,2.2305,-45.9344,
7.7540,-0.0777,-0.0165,1.0126,-0.0189,-0.1001,0.1216,0.0352,-0.0315,-0.0013,-11.0948,2.1930,-45.8979,
7.7760,-0.0762,-0.0182,1.0102,-0.0189,-0.1001,0.1216,0.0352,-0.0315,-0.0013,-11.0948,2.1930,-45.8979,
7.8030,-0.0762,-0.0182,1.0102,-0.0189,-0.1001,0.1216,0.0199,-0.0284,-0.0003,-11.0948,2.1930,-45.8979,
7.8040,-0.0737,-0.0151,1.0128,-0.0189,-0.1001,0.1216,0.0199,-0.0284,-0.0003,-11.0948,2.1930,-45.8979,
7.8050,-0.0713,-0.0138,1.0195,-0.0189,-0.1001,0.1216,0.0199,-0.0284,-0.0003,-11.0948,2.1930,-45.8979,
7.8060,-0.0713,-0.0138,1.0195,-0.0214,-0.0714,-0.0167,0.0199,-0.0284,-0.0003,-11.0948,2.1930,-45.8979,
7.8210,-0.0759,-0.0150,1.0264,-0.0214,-0.0714,-0.0167,0.0199,-0.0284,-0.0003,-11.0948,2.1930,-45.8979,
7.8220,-0.0759,-0.0150,1.0264,-0.0214,-0.0714,-0.0167,0.0049,0.0360,-0.0013,-11.0948,2.1930,-45.8979,
7.8220,-0.0759,-0.0150,1.0264,-0.0214,-0.0714,-0.0167,0.0049,0.0360,-0.0013,-11.1080,2.1838,-45.8604,
7.8430,-0.0810,-0.0174,1.0296,-0.0214,-0.0714,-0.0167,0.0049,0.0360,-0.0013,-11.1080,2.1838,-45.8604,
7.8810,-0.0809,-0.0183,1.0271,-0.0214,-0.0714,-0.0167,0.0049,0.0360,-0.0013,-11.1080,2.1838,-45.8604,
7.8820,-0.0809,-0.0183,1.0271,-0.0214,-0.0714,-0.0167,0.0135,0.0156,0.0018,-11.1080,2.1838,-45.8604,
7.8830,-0.0792,-0.0178,1.0240,-0.0214,-0.0714,-0.0167,0.0135,0.0156,0.0018,-11.1080,2.1838,-45.8604,
7.8840,-0.0792,-0.0178,1.0240,0.0280,-0.0604,-0.0535,0.0135,0.0156,0.0018,-11.1080,2.1838,-45.8604,
7.8870,-0.0792,-0.0178,1.0240,0.0280,-0.0604,-0.0535,0.0135,0.0156,0.0018,-11.2086,2.1205,-45.8678,
7.9110,-0.0763,-0.0172,1.0229,0.0280,-0.0604,-0.0535,0.0135,0.0156,0.0018,-11.2086,2.1205,-45.8678,
7.9130,-0.0763,-0.0172,1.0229,0.0280,-0.0604,-0.0535,0.0217,0.0055,0.0003,-11.2086,2.1205,-45.8678,
7.9390,-0.0755,-0.0158,1.0223,0.0280,-0.0604,-0.0535,0.0217,0.0055,0.0003,-11.2086,2.1205,-45.8678,
7.9410,-0.0755,-0.0158,1.0223,0.0280,-0.0604,-0.0535,0.0175,0.0183,-0.0022,-11.2086,2.1205,-45.8678,
7.9410,-0.0755,-0.0157,1.0212,0.0280,-0.0604,-0.0535,0.0175,0.0183,-0.0022,-11.2086,2.1205,-45.8678,
7.9420,-0.0755,-0.0157,1.0212,-0.0191,-0.0818,0.0516,0.0175,0.0183,-0.0022,-11.2086,2.1205,-45.8678,
7.9540,-0.0755,-0.0157,1.0212,-0.0191,-0.0818,0.0516,0.0175,0.0183,-0.0022,-11.1631,2.0642,-45.8569,
7.9760,-0.0770,-0.0145,1.0190,-0.0191,-0.0818,0.0516,0.0175,0.0183,-0.0022,-11.1631,2.0642,-45.8569,
8.0180,-0.0770,-0.0145,1.0190,0.0211,-0.0695,0.0004,0.0175,0.0183,-0.0022,-11.1631,2.0642,-45.8569,
8.0190,-0.0770,-0.0145,1.0190,0.0211,-0.0695,0.0004,0.0135,0.0046,-0.0009,-11.1631,2.0642,-45.8569,
8.0200,-0.0777,-0.0157,1.0181,0.0211,-0.0695,0.0004,0.0135,0.0046,-0.0009,-11.1631,2.0642,-45.8569,
8.0200,-0.0777,-0.0157,1.0181,0.0211,-0.0695,0.0004,0.0184,0.0070,0.0021,-11.1631,2.0642,-45.8569,
8.0200,-0.0778,-0.0166,1.0175,0.0211,-0.0695,0.0004,0.0184,0.0070,0.0021,-11.1631,2.0642,-45.8569,
8.0210,-0.0762,-0.0178,1.0179,0.0211,-0.0695,0.0004,0.0184,0.0070,0.0021,-11.1631,2.0642,-45.8569,
8.0210,-0.0762,-0.0178,1.0179,0.0211,-0.0695,0.0004,0.0184,0.0070,0.0021,-11.1398,2.0346,-45.8964,
8.0450,-0.0772,-0.0180,1.0196,0.0211,-0.0695,0.0004,0.0184,0.0070,0.0021,-11.1398,2.0346,-45.8964,
8.0760,-0.0792,-0.0187,1.0223,0.0211,-0.0695,0.0004,0.0184,0.0070,0.0021,-11.1398,2.0346,-45.8964,
8.0770,-0.0792,-0.0187,1.0223,0.0211,-0.0695,0.0004,0.0245,0.0202,0.0009,-11.1398,2.0346,-45.8964,
8.0780,-0.0801,-0.0165,1.0246,0.0211,-0.0695,0.0004,0.0245,0.0202,0.0009,-11.1398,2.0346,-45.8964,
8.0780,-0.0801,-0.0165,1.0246,0.0179,-0.0792,-0.0327,0.0245,0.0202,0.0009,-11.1398,2.0346,-45.8964,
8.0880,-0.0801,-0.0165,1.0246,0.0179,-0.0792,-0.0327,0.0245,0.0202,0.0009,-11.0802,1.9965,-45.9481,
8.1100,-0.0820,-0.0157,1.0241,0.0179,-0.0792,-0.0327,0.0245,0.0202,0.0009,-11.0802,1.9965,-45.9481,
8.1110,-0.0820,-0.0157,1.0241,0.0179,-0.0792,-0.0327,0.0190,0.0122,-0.0009,-11.0802,1.9965,-45.9481,
8.1530,-0.0834,-0.0132,1.0235,0.0179,-0.0792,-0.0327,0.0190,0.0122,-0.0009,-11.0802,1.9965,-45.9481,
8.1550,-0.0834,-0.0132,1.0235,0.0179,-0.0792,-0.0327,0.0110,-0.0098,-0.0016,-11.0802,1.9965,-45.9481,
8.1550,-0.0829,-0.0144,1.0217,0.0179,-0.0792,-0.0327,0.0110,-0.0098,-0.0016,-11.0802,1.9965,-45.9481,
8.1550,-0.0787,-0.0150,1.0202,0.0179,-0.0792,-0.0327,0.0110,-0.0098,-0.0016,-11.0802,1.9965,-45.9481,
8.1560,-0.0787,-0.0150,1.0202,-0.0084,-0.0872,0.0097,0.0110,-0.0098,-0.0016,-11.0802,1.9965,-45.9481,
8.1560,-0.0787,-0.0150,1.0202,-0.0084,-0.0872,0.0097,0.0110,-0.0098,-0.0016,-11.1173,1.9630,-46.0286,
8.1760,-0.0755,-0.0156,1.0177,-0.0084,-0.0872,0.0097,0.0110,-0.0098,-0.0016,-11.1173,1.9630,-46.0286,
8.1780,-0.0755,-0.0156,1.0177,-0.0084,-0.0872,0.0097,0.0098,-0.0095,0.0009,-11.1173,1.9630,-46.0286,
8.2160,-0.0760,-0.0160,1.0152,-0.0084,-0.0872,0.0097,0.0098,-0.0095,0.0009,-11.1173,1.9630,-46.0286,
8.2170,-0.0779,-0.0155,1.0164,-0.0084,-0.0872,0.0097,0.0098,-0.0095,0.0009,-11.1173,1.9630,-46.0286,
8.2180,-0.0779,-0.0155,1.0164,-0.0189,-0.0571,0.0071,0.0098,-0.0095,0.0009,-11.1173,1.9630,-46.0286,
8.2180,-0.0779,-0.0155,1.0164,-0.0189,-0.0571,0.0071,0.0138,0.0189,0.0012,-11.1173,1.9630,-46.0286,
8.2210,-0.0779,-0.0155,1.0164,-0.0189,-0.0571,0.0071,0.0138,0.0189,0.0012,-11.0943,1.9563,-45.9640,
8.2450,-0.0793,-0.0144,1.0167,-0.0189,-0.0571,0.0071,0.0138,0.0189,0.0012,-11.0943,1.9563,-45.9640,
8.2890,-0.0793,-0.0144,1.0167,-0.0189,-0.0571,0.0071,0.0175,0.0229,-0.0006,-11.0943,1.9563,-45.9640,
8.2900,-0.0811,-0.0147,1.0188,-0.0189,-0.0571,0.0071,0.0175,0.0229,-0.0006,-11.0943,1.9563,-45.9640,
8.2910,-0.0812,-0.0157,1.0214,-0.0189,-0.0571,0.0071,0.0175,0.0229,-0.0006,-11.0943,1.9563,-45.9640,
8.2910,-0.0812,-0.0157,1.0214,-0.0189,-0.0571,0.0071,0.0175,0.0229,-0.0006,-11.0680,1.9860,-45.9869,
8.2920,-0.0810,-0.0172,1.0223,-0.0189,-0.0571,0.0071,0.0175,0.0229,-0.0006,-11.0680,1.9860,-45.9869,
8.2930,-0.0810,-0.0172,1.0223,-0.0189,-0.0571,0.0071,0.0159,0.0104,0.0003,-11.0680,1.9860,-45.9869,
8.2930,-0.0810,-0.0172,1.0223,0.0355,-0.0714,-0.0435,0.0159,0.0104,0.0003,-11.0680,1.9860,-45.9869,
8.3100,-0.0827,-0.0166,1.0207,0.0355,-0.0714,-0.0435,0.0159,0.0104,0.0003,-11.0680,1.9860,-45.9869,
8.3510,-0.0827,-0.0166,1.0207,0.0355,-0.0714,-0.0435,0.0211,-0.0156,0.0003,-11.0680,1.9860,-45.9869,
8.3520,-0.0843,-0.0165,1.0173,0.0355,-0.0714,-0.0435,0.0211,-0.0156,0.0003,-11.0680,1.9860,-45.9869,
8.3530,-0.0849,-0.0155,1.0166,0.0355,-0.0714,-0.0435,0.0211,-0.0156,0.0003,-11.0680,1.9860,-45.9869,
8.3530,-0.0849,-0.0155,1.0166,-0.0154,-0.0763,-0.0052,0.0211,-0.0156,0.0003,-11.0680,1.9860,-45.9869,
8.3540,-0.0849,-0.0155,1.0166,-0.0154,-0.0763,-0.0052,0.0211,-0.0156,0.0003,-11.0533,2.0356,-45.9833,
8.3770,-0.0794,-0.0168,1.0192,-0.0154,-0.0763,-0.0052,0.0211,-0.0156,0.0003,-11.0533,2.0356,-45.9833,
8.3790,-0.0794,-0.0168,1.0192,-0.0154,-0.0763,-0.0052,0.0135,-0.0095,0.0009,-11.0533,2.0356,-45.9833,
8.4200,-0.0794,-0.0168,1.0192,-0.0154,-0.0763,-0.0052,0.0190,0.0583,0.0003,-11.0533,2.0356,-45.9833,
8.4210,-0.0701,-0.0144,1.0251,-0.0154,-0.0763,-0.0052,0.0190,0.0583,0.0003,-11.0533,2.0356,-45.9833,
8.4220,-0.0737,-0.0118,1.0275,-0.0154,-0.0763,-0.0052,0.0190,0.0583,0.0003,-11.0533,2.0356,-45.9833,
8.4220,-0.0737,-0.0118,1.0275,-0.0154,-0.0763,-0.0052,0.0190,0.0583,0.0003,-10.9928,2.0285,-45.9816,
8.4250,-0.0850,-0.0130,1.0262,-0.0154,-0.0763,-0.0052,0.0190,0.0583,0.0003,-10.9928,2.0285,-45.9816,
8.4260,-0.0850,-0.0130,1.0262,-0.0077,-0.0853,-0.0215,0.0190,0.0583,0.0003,-10.9928,2.0285,-45.9816,
8.4870,-0.0875,-0.0156,1.0168,-0.0077,-0.0853,-0.0215,0.0190,0.0583,0.0003,-10.9928,2.0285,-45.9816,
8.4900,-0.0875,-0.0156,1.0168,-0.0077,-0.0853,-0.0215,0.0300,0.0156,-0.0013,-10.9928,2.0285,-45.9816,
8.4900,-0.0875,-0.0156,1.0168,-0.0077,-0.0853,-0.0215,0.0138,-0.0947,-0.0034,-10.9928,2.0285,-45.9816,
8.4910,-0.0876,-0.0168,1.0081,-0.0077,-0.0853,-0.0215,0.0138,-0.0947,-0.0034,-10.9928,2.0285,-45.9816,
8.4910,-0.0909,-0.0165,1.0053,-0.0077,-0.0853,-0.0215,0.0138,-0.0947,-0.0034,-10.9928,2.0285,-45.9816,
8.4920,-0.0909,-0.0165,1.0053,0.0130,-0.0633,0.0415,0.0138,-0.0947,-0.0034,-10.9928,2.0285,-45.9816,
8.4920,-0.0909,-0.0165,1.0053,0.0130,-0.0633,0.0415,0.0138,-0.0947,-0.0034,-11.0035,2.0354,-46.0586,
8.5090,-0.0856,-0.0140,1.0078,0.0130,-0.0633,0.0415,0.0138,-0.0947,-0.0034,-11.0035,2.0354,-46.0586,
8.5550,-0.0726,-0.0144,1.0133,0.0130,-0.0633,0.0415,0.0138,-0.0947,-0.0034,-11.0035,2.0354,-46.0586,
8.5560,-0.0726,-0.0144,1.0133,0.0130,-0.0633,0.0415,-0.0039,-0.0440,-0.0043,-11.0035,2.0354,-46.0586,
8.5570,-0.0726,-0.0144,1.0133,0.0130,-0.0633,0.0415,-0.0039,-0.0440,-0.0043,-11.0148,2.0549,-46.0450,
8.5570,-0.0654,-0.0139,1.0227,0.0130,-0.0633,0.0415,-0.0039,-0.0440,-0.0043,-11.0148,2.0549,-46.0450,
8.5630,-0.0654,-0.0139,1.0227,0.0130,-0.0633,0.0415,-0.0137,0.0983,0.0006,-11.0148,2.0549,-46.0450,
8.5640,-0.0688,-0.0144,1.0291,0.0130,-0.0633,0.0415,-0.0137,0.0983,0.0006,-11.0148,2.0549,-46.0450,
8.5650,-0.0688,-0.0144,1.0291,-0.0683,-0.0700,-0.0987,-0.0137,0.0983,0.0006,-11.0148,2.0549,-46.0450,
8.6230,-0.0782,-0.0176,1.0317,-0.0683,-0.0700,-0.0987,-0.0137,0.0983,0.0006,-11.0148,2.0549,-46.0450,
8.6260,-0.0782,-0.0176,1.0317,-0.0683,-0.0700,-0.0987,0.0031,0.0684,0.0042,-11.0148,2.0549,-46.0450,
8.6260,-0.0889,-0.0200,1.0308,-0.0683,-0.0700,-0.0987,0.0031,0.0684,0.0042,-11.0148,2.0549,-46.0450,
8.6270,-0.0897,-0.0211,1.0290,-0.0683,-0.0700,-0.0987,0.0031,0.0684,0.0042,-11.0148,2.0549,-46.0450,
8.6270,-0.0897,-0.0211,1.0290,-0.0683,-0.0700,-0.0987,0.0031,0.0684,0.0042,-11.0499,2.0827,-46.0445,
8.6280,-0.0897,-0.0211,1.0290,0.1261,-0.0543,0.0027,0.0031,0.0684,0.0042,-11.0499,2.0827,-46.0445,
8.6420,-0.0897,-0.0211,1.0290,0.1261,-0.0543,0.0027,0.0230,0.0281,0.0033,-11.0499,2.0827,-46.0445,
8.6440,-0.0880,-0.0182,1.0258,0.1261,-0.0543,0.0027,0.0230,0.0281,0.0033,-11.0499,2.0827,-46.0445,
8.6890,-0.0867,-0.0149,1.0232,0.1261,-0.0543,0.0027,0.0230,0.0281,0.0033,-11.0499,2.0827,-46.0445,
8.6900,-0.0867,-0.0149,1.0232,0.1261,-0.0543,0.0027,0.0236,-0.0113,-0.0040,-11.0499,2.0827,-46.0445,
8.6910,-0.0867,-0.0149,1.0232,0.1261,-0.0543,0.0027,0.0236,-0.0113,-0.0040,-11.0400,2.0558,-45.9816,
8.6920,-0.0865,-0.0144,1.0191,0.1261,-0.0543,0.0027,0.0236,-0.0113,-0.0040,-11.0400,2.0558,-45.9816,
8.7000,-0.0865,-0.0144,1.0191,-0.0291,-0.1085,0.0912,0.0236,-0.0113,-0.0040,-11.0400,2.0558,-45.9816,
8.7000,-0.0855,-0.0144,1.0133,-0.0291,-0.1085,0.0912,0.0236,-0.0113,-0.0040,-11.0400,2.0558,-45.9816,
8.7540,-0.0855,-0.0144,1.0133,-0.0291,-0.1085,0.0912,0.0147,-0.0324,-0.0013,-11.0400,2.0558,-45.9816,
8.7560,-0.0855,-0.0144,1.0133,-0.0291,-0.1085,0.0912,0.0147,-0.0324,-0.0013,-11.0032,2.0456,-46.0451,
8.7580,-0.0815,-0.0152,1.0115,-0.0291,-0.1085,0.0912,0.0147,-0.0324,-0.0013,-11.0032,2.0456,-46.0451,
8.7580,-0.0777,-0.0143,1.0148,-0.0291,-0.1085,0.0912,0.0147,-0.0324,-0.0013,-11.0032,2.0456,-46.0451,
8.7590,-0.0777,-0.0143,1.0148,-0.0291,-0.1085,0.0912,-0.0015,0.0257,-0.0003,-11.0032,2.0456,-46.0451,
8.7600,-0.0796,-0.0138,1.0206,-0.0291,-0.1085,0.0912,-0.0015,0.0257,-0.0003,-11.0032,2.0456,-46.0451,
8.7600,-0.0796,-0.0138,1.0206,-0.0216,-0.0562,-0.0116,-0.0015,0.0257,-0.0003,-11.0032,2.0456,-46.0451,
8.8230,-0.0796,-0.0138,1.0206,-0.0216,-0.0562,-0.0116,0.0083,0.0174,0.0003,-11.0032,2.0456,-46.0451,
8.8250,-0.0873,-0.0144,1.0239,-0.0216,-0.0562,-0.0116,0.0083,0.0174,0.0003,-11.0032,2.0456,-46.0451,
8.8260,-0.0892,-0.0172,1.0223,-0.0216,-0.0562,-0.0116,0.0083,0.0174,0.0003,-11.0032,2.0456,-46.0451,
8.8260,-0.0882,-0.0183,1.0203,-0.0216,-0.0562,-0.0116,0.0083,0.0174,0.0003,-11.0032,2.0456,-46.0451,
8.8270,-0.0882,-0.0183,1.0203,-0.0216,-0.0562,-0.0116,0.0083,0.0174,0.0003,-10.9901,2.0552,-46.0698,
8.8400,-0.0882,-0.0183,1.0203,-0.0216,-0.0562,-0.0116,0.0214,-0.0037,0.0006,-10.9901,2.0552,-46.0698,
8.8410,-0.0856,-0.0169,1.0202,-0.0216,-0.0562,-0.0116,0.0214,-0.0037,0.0006,-10.9901,2.0552,-46.0698,
8.8420,-0.0856,-0.0169,1.0202,0.0334,-0.0561,-0.0331,0.0214,-0.0037,0.0006,-10.9901,2.0552,-46.0698,
8.8900,-0.0856,-0.0169,1.0202,0.0334,-0.0561,-0.0331,0.0214,0.0195,-0.0003,-10.9901,2.0552,-46.0698,
8.8920,-0.0856,-0.0169,1.0202,0.0334,-0.0561,-0.0331,0.0214,0.0195,-0.0003,-10.9784,2.0459,-46.0699,
8.8930,-0.0850,-0.0160,1.0221,0.0334,-0.0561,-0.0331,0.0214,0.0195,-0.0003,-10.9784,2.0459,-46.0699,
8.8940,-0.0838,-0.0162,1.0225,0.0334,-0.0561,-0.0331,0.0214,0.0195,-0.0003,-10.9784,2.0459,-46.0699,
8.8950,-0.0840,-0.0172,1.0214,0.0334,-0.0561,-0.0331,0.0214,0.0195,-0.0003,-10.9784,2.0459,-46.0699,
8.8950,-0.0840,-0.0172,1.0214,-0.0241,-0.0863,0.0126,0.0214,0.0195,-0.0003,-10.9784,2.0459,-46.0699,
8.9550,-0.0840,-0.0172,1.0214,-0.0241,-0.0863,0.0126,0.0184,0.0067,0.0009,-10.9784,2.0459,-46.0699,
8.9570,-0.0861,-0.0174,1.0194,-0.0241,-0.0863,0.0126,0.0184,0.0067,0.0009,-10.9784,2.0459,-46.0699,
8.9570,-0.0858,-0.0171,1.0175,-0.0241,-0.0863,0.0126,0.0184,0.0067,0.0009,-10.9784,2.0459,-46.0699,
8.9580,-0.0844,-0.0169,1.0173,-0.0241,-0.0863,0.0126,0.0184,0.0067,0.0009,-10.9784,2.0459,-46.0699,
8.9580,-0.0844,-0.0169,1.0173,-0.0241,-0.0863,0.0126,0.0184,0.0067,0.0009,-10.9412,2.0570,-46.0808,
8.9590,-0.0844,-0.0169,1.0173,-0.0241,-0.0863,0.0126,0.0132,0.0021,0.0009,-10.9412,2.0570,-46.0808,
8.9740,-0.0844,-0.0169,1.0173,0.0096,-0.0811,0.0141,0.0132,0.0021,0.0009,-10.9412,2.0570,-46.0808,
8.9750,-0.0840,-0.0171,1.0174,0.0096,-0.0811,0.0141,0.0132,0.0021,0.0009,-10.9412,2.0570,-46.0808,
9.0210,-0.0840,-0.0171,1.0174,0.0096,-0.0811,0.0141,0.0129,0.0113,-0.0016,-10.9412,2.0570,-46.0808,
9.0230,-0.0840,-0.0171,1.0174,0.0096,-0.0811,0.0141,0.0129,0.0113,-0.0016,-10.9054,2.0496,-46.0543,
9.0230,-0.0850,-0.0166,1.0191,0.0096,-0.0811,0.0141,0.0129,0.0113,-0.0016,-10.9054,2.0496,-46.0543,
9.0240,-0.0866,-0.0151,1.0189,0.0096,-0.0811,0.0141,0.0129,0.0113,-0.0016,-10.9054,2.0496,-46.0543,
9.0310,-0.0866,-0.0151,1.0189,0.0096,-0.0811,0.0141,0.0172,0.0107,-0.0009,-10.9054,2.0496,-46.0543,
9.0320,-0.0866,-0.0151,1.0189,0.0112,-0.0844,-0.0241,0.0172,0.0107,-0.0009,-10.9054,2.0496,-46.0543,
9.0330,-0.0872,-0.0151,1.0196,0.0112,-0.0844,-0.0241,0.0172,0.0107,-0.0009,-10.9054,2.0496,-46.0543,
9.0900,-0.0872,-0.0151,1.0196,0.0112,-0.0844,-0.0241,0.0117,0.0098,-0.0009,-10.9054,2.0496,-46.0543,
9.0920,-0.0886,-0.0146,1.0201,0.0112,-0.0844,-0.0241,0.0117,0.0098,-0.0009,-10.9054,2.0496,-46.0543,
9.0930,-0.0886,-0.0146,1.0201,0.0112,-0.0844,-0.0241,0.0117,0.0098,-0.0009,-10.8438,2.0727,-46.0250,
9.0940,-0.0894,-0.0145,1.0225,0.0112,-0.0844,-0.0241,0.0117,0.0098,-0.0009,-10.8438,2.0727,-46.0250,
9.1110,-0.0894,-0.0145,1.0225,0.0112,-0.0844,-0.0241,0.0086,0.0052,-0.0000,-10.8438,2.0727,-46.0250,
9.1120,-0.0898,-0.0150,1.0238,0.0112,-0.0844,-0.0241,0.0086,0.0052,-0.0000,-10.8438,2.0727,-46.0250,
9.1120,-0.0875,-0.0157,1.0224,0.0112,-0.0844,-0.0241,0.0086,0.0052,-0.0000,-10.8438,2.0727,-46.0250,
9.1140,-0.0875,-0.0157,1.0224,0.0010,-0.0680,-0.0071,0.0086,0.0052,-0.0000,-10.8438,2.0727,-46.0250,
9.1560,-0.0854,-0.0154,1.0219,0.0010,-0.0680,-0.0071,0.0086,0.0052,-0.0000,-10.8438,2.0727,-46.0250,
9.1580,-0.0854,-0.0154,1.0219,0.0010,-0.0680,-0.0071,0.0086,0.0052,-0.0000,-10.7846,2.0468,-45.9989,
9.1580,-0.0854,-0.0154,1.0219,0.0010,-0.0680,-0.0071,0.0104,0.0092,-0.0003,-10.7846,2.0468,-45.9989,
9.1590,-0.0856,-0.0155,1.0199,0.0010,-0.0680,-0.0071,0.0104,0.0092,-0.0003,-10.7846,2.0468,-45.9989,
9.1680,-0.0856,-0.0155,1.0199,-0.0141,-0.0630,0.0252,0.0104,0.0092,-0.0003,-10.7846,2.0468,-45.9989,
9.1690,-0.0858,-0.0147,1.0196,-0.0141,-0.0630,0.0252,0.0104,0.0092,-0.0003,-10.7846,2.0468,-45.9989,
9.2230,-0.0858,-0.0147,1.0196,-0.0141,-0.0630,0.0252,0.0162,0.0137,-0.0003,-10.7846,2.0468,-45.9989,
9.2250,-0.0867,-0.0151,1.0184,-0.0141,-0.0630,0.0252,0.0162,0.0137,-0.0003,-10.7846,2.0468,-45.9989,
9.2260,-0.0867,-0.0151,1.0184,-0.0141,-0.0630,0.0252,0.0162,0.0137,-0.0003,-10.6732,2.0697,-46.0449,
9.2260,-0.0873,-0.0158,1.0192,-0.0141,-0.0630,0.0252,0.0162,0.0137,-0.0003,-10.6732,2.0697,-46.0449,
9.2440,-0.0889,-0.0174,1.0192,-0.0141,-0.0630,0.0252,0.0162,0.0137,-0.0003,-10.6732,2.0697,-46.0449,
9.2450,-0.0889,-0.0174,1.0192,-0.0141,-0.0630,0.0252,0.0199,0.0131,0.0006,-10.6732,2.0697,-46.0449,
9.2460,-0.0884,-0.0167,1.0183,-0.0141,-0.0630,0.0252,0.0199,0.0131,0.0006,-10.6732,2.0697,-46.0449,
9.2460,-0.0884,-0.0167,1.0183,0.0200,-0.0712,0.0002,0.0199,0.0131,0.0006,-10.6732,2.0697,-46.0449,
9.2890,-0.0884,-0.0167,1.0183,0.0200,-0.0712,0.0002,0.0254,-0.0137,0.0003,-10.6732,2.0697,-46.0449,
9.2910,-0.0895,-0.0176,1.0156,0.0200,-0.0712,0.0002,0.0254,-0.0137,0.0003,-10.6732,2.0697,-46.0449,
9.2910,-0.0928,-0.0160,1.0142,0.0200,-0.0712,0.0002,0.0254,-0.0137,0.0003,-10.6732,2.0697,-46.0449,
9.2920,-0.0928,-0.0160,1.0142,0.0200,-0.0712,0.0002,0.0254,-0.0137,0.0003,-10.6131,2.0744,-45.9783,
9.3060,-0.0899,-0.0152,1.0194,0.0200,-0.0712,0.0002,0.0254,-0.0137,0.0003,-10.6131,2.0744,-45.9783,
9.3080,-0.0899,-0.0152,1.0194,0.0200,-0.0712,0.0002,0.0123,-0.0156,-0.0043,-10.6131,2.0744,-45.9783,
9.3080,-0.0899,-0.0152,1.0194,-0.0089,-0.0827,-0.0112,0.0123,-0.0156,-0.0043,-10.6131,2.0744,-45.9783,
9.3550,-0.0899,-0.0152,1.0194,-0.0089,-0.0827,-0.0112,0.0126,0.0492,0.0027,-10.6131,2.0744,-45.9783,
9.3560,-0.0829,-0.0143,1.0267,-0.0089,-0.0827,-0.0112,0.0126,0.0492,0.0027,-10.6131,2.0744,-45.9783,
9.3570,-0.0790,-0.0129,1.0304,-0.0089,-0.0827,-0.0112,0.0126,0.0492,0.0027,-10.6131,2.0744,-45.9783,
9.3570,-0.0790,-0.0129,1.0304,-0.0089,-0.0827,-0.0112,0.0126,0.0492,0.0027,-10.5777,2.0568,-45.9653,
9.3760,-0.0869,-0.0103,1.0285,-0.0089,-0.0827,-0.0112,0.0126,0.0492,0.0027,-10.5777,2.0568,-45.9653,
9.3850,-0.0961,-0.0133,1.0212,-0.0089,-0.0827,-0.0112,0.0126,0.0492,0.0027,-10.5777,2.0568,-45.9653,
9.3860,-0.0961,-0.0133,1.0212,-0.0089,-0.0827,-0.0112,0.0278,0.0473,-0.0031,-10.5777,2.0568,-45.9653,
9.3870,-0.0961,-0.0133,1.0212,0.0073,-0.0837,-0.0185,0.0278,0.0473,-0.0031,-10.5777,2.0568,-45.9653,
9.4230,-0.0977,-0.0163,1.0111,0.0073,-0.0837,-0.0185,0.0278,0.0473,-0.0031,-10.5777,2.0568,-45.9653,
9.4240,-0.0977,-0.0163,1.0111,0.0073,-0.0837,-0.0185,0.0278,0.0473,-0.0031,-10.5304,2.0406,-45.9261,
9.4420,-0.0977,-0.0163,1.0111,-0.0249,-0.0523,0.0597,0.0278,0.0473,-0.0031,-10.5304,2.0406,-45.9261,
9.4440,-0.0981,-0.0173,1.0045,-0.0249,-0.0523,0.0597,0.0278,0.0473,-0.0031,-10.5304,2.0406,-45.9261,
9.4440,-0.0938,-0.0173,1.0034,-0.0249,-0.0523,0.0597,0.0278,0.0473,-0.0031,-10.5304,2.0406,-45.9261,
9.4460,-0.0938,-0.0173,1.0034,-0.0249,-0.0523,0.0597,0.0217,-0.0977,-0.0025,-10.5304,2.0406,-45.9261,
9.4890,-0.0840,-0.0168,1.0103,-0.0249,-0.0523,0.0597,0.0217,-0.0977,-0.0025,-10.5304,2.0406,-45.9261,
9.4910,-0.0840,-0.0168,1.0103,-0.0249,-0.0523,0.0597,0.0040,-0.0828,-0.0034,-10.5304,2.0406,-45.9261,
9.4910,-0.0732,-0.0149,1.0188,-0.0249,-0.0523,0.0597,0.0040,-0.0828,-0.0034,-10.5304,2.0406,-45.9261,
9.4920,-0.0732,-0.0149,1.0188,-0.0249,-0.0523,0.0597,0.0040,-0.0828,-0.0034,-10.5062,2.0421,-45.9123,
9.5090,-0.0729,-0.0154,1.0289,-0.0249,-0.0523,0.0597,0.0040,-0.0828,-0.0034,-10.5062,2.0421,-45.9123,
9.5110,-0.0729,-0.0154,1.0289,-0.0249,-0.0523,0.0597,-0.0164,0.0987,-0.0003,-10.5062,2.0421,-45.9123,
9.5200,-0.0729,-0.0154,1.0289,-0.0448,-0.0787,-0.1195,-0.0164,0.0987,-0.0003,-10.5062,2.0421,-45.9123,
9.5210,-0.0826,-0.0145,1.0323,-0.0448,-0.0787,-0.1195,-0.0164,0.0987,-0.0003,-10.5062,2.0421,-45.9123,
9.5540,-0.0826,-0.0145,1.0323,-0.0448,-0.0787,-0.1195,-0.0064,0.0932,-0.0000,-10.5062,2.0421,-45.9123,
9.5550,-0.0928,-0.0158,1.0315,-0.0448,-0.0787,-0.1195,-0.0064,0.0932,-0.0000,-10.5062,2.0421,-45.9123,
9.5560,-0.0928,-0.0158,1.0315,-0.0448,-0.0787,-0.1195,-0.0064,0.0932,-0.0000,-10.5072,2.0335,-45.8744,
9.5760,-0.0996,-0.0193,1.0272,-0.0448,-0.0787,-0.1195,-0.0064,0.0932,-0.0000,-10.5072,2.0335,-45.8744,
9.5780,-0.0983,-0.0185,1.0234,-0.0448,-0.0787,-0.1195,-0.0064,0.0932,-0.0000,-10.5072,2.0335,-45.8744,
9.5780,-0.0983,-0.0185,1.0234,-0.0448,-0.0787,-0.1195,0.0224,0.0137,0.0046,-10.5072,2.0335,-45.8744,
9.5790,-0.0983,-0.0185,1.0234,0.1351,-0.0628,0.0517,0.0224,0.0137,0.0046,-10.5072,2.0335,-45.8744,
9.6210,-0.0983,-0.0185,1.0234,0.1351,-0.0628,0.0517,0.0294,-0.0110,-0.0022,-10.5072,2.0335,-45.8744,
9.6220,-0.0941,-0.0168,1.0184,0.1351,-0.0628,0.0517,0.0294,-0.0110,-0.0022,-10.5072,2.0335,-45.8744,
9.6230,-0.0915,-0.0150,1.0146,0.1351,-0.0628,0.0517,0.0294,-0.0110,-0.0022,-10.5072,2.0335,-45.8744,
9.6230,-0.0915,-0.0150,1.0146,0.1351,-0.0628,0.0517,0.0294,-0.0110,-0.0022,-10.4958,2.0140,-45.8880,
9.6430,-0.0914,-0.0151,1.0148,0.1351,-0.0628,0.0517,0.0294,-0.0110,-0.0022,-10.4958,2.0140,-45.8880,
9.6560,-0.0904,-0.0165,1.0155,0.1351,-0.0628,0.0517,0.0294,-0.0110,-0.0022,-10.4958,2.0140,-45.8880,
9.6570,-0.0904,-0.0165,1.0155,0.1351,-0.0628,0.0517,0.0169,-0.0082,-0.0025,-10.4958,2.0140,-45.8880,
9.6570,-0.0904,-0.0165,1.0155,-0.0584,-0.0933,0.0590,0.0169,-0.0082,-0.0025,-10.4958,2.0140,-45.8880,
9.6880,-0.0902,-0.0136,1.0201,-0.0584,-0.0933,0.0590,0.0169,-0.0082,-0.0025,-10.4958,2.0140,-45.8880,
9.6900,-0.0902,-0.0136,1.0201,-0.0584,-0.0933,0.0590,0.0169,-0.0082,-0.0025,-10.4597,2.0058,-45.8873,
9.7090,-0.0902,-0.0136,1.0201,-0.0584,-0.0933,0.0590,0.0043,0.0223,-0.0016,-10.4597,2.0058,-45.8873,
9.7100,-0.0894,-0.0127,1.0236,-0.0584,-0.0933,0.0590,0.0043,0.0223,-0.0016,-10.4597,2.0058,-45.8873,
9.7150,-0.0928,-0.0138,1.0257,-0.0584,-0.0933,0.0590,0.0043,0.0223,-0.0016,-10.4597,2.0058,-45.8873,
9.7170,-0.0928,-0.0138,1.0257,0.0116,-0.0674,-0.0401,0.0043,0.0223,-0.0016,-10.4597,2.0058,-45.8873,
9.7560,-0.0928,-0.0138,1.0257,0.0116,-0.0674,-0.0401,0.0110,0.0254,0.0003,-10.4597,2.0058,-45.8873,
9.7570,-0.0956,-0.0162,1.0258,0.0116,-0.0674,-0.0401,0.0110,0.0254,0.0003,-10.4597,2.0058,-45.8873,
9.7580,-0.0956,-0.0162,1.0258,0.0116,-0.0674,-0.0401,0.0110,0.0254,0.0003,-10.5344,1.9841,-45.8527,
9.7580,-0.0961,-0.0171,1.0205,0.0116,-0.0674,-0.0401,0.0110,0.0254,0.0003,-10.5344,1.9841,-45.8527,
9.7770,-0.0961,-0.0171,1.0205,0.0116,-0.0674,-0.0401,0.0193,-0.0070,0.0018,-10.5344,1.9841,-45.8527,
9.7780,-0.0937,-0.0171,1.0180,0.0116,-0.0674,-0.0401,0.0193,-0.0070,0.0018,-10.5344,1.9841,-45.8527,
9.7920,-0.0937,-0.0171,1.0180,0.0089,-0.0554,0.0375,0.0193,-0.0070,0.0018,-10.5344,1.9841,-45.8527,
9.7930,-0.0908,-0.0160,1.0184,0.0089,-0.0554,0.0375,0.0193,-0.0070,0.0018,-10.5344,1.9841,-45.8527,
9.8210,-0.0908,-0.0160,1.0184,0.0089,-0.0554,0.0375,0.0214,0.0144,0.0003,-10.5344,1.9841,-45.8527,
9.8220,-0.0908,-0.0160,1.0184,0.0089,-0.0554,0.0375,0.0214,0.0144,0.0003,-10.6068,1.9898,-45.8806,
9.8230,-0.0912,-0.0162,1.0192,0.0089,-0.0554,0.0375,0.0214,0.0144,0.0003,-10.6068,1.9898,-45.8806,
9.8420,-0.0912,-0.0157,1.0203,0.0089,-0.0554,0.0375,0.0214,0.0144,0.0003,-10.6068,1.9898,-45.8806,
9.8540,-0.0927,-0.0149,1.0207,0.0089,-0.0554,0.0375,0.0214,0.0144,0.0003,-10.6068,1.9898,-45.8806,
9.8550,-0.0927,-0.0149,1.0207,0.0089,-0.0554,0.0375,0.0202,0.0220,-0.0006,-10.6068,1.9898,-45.8806,
9.8560,-0.0927,-0.0149,1.0207,-0.0014,-0.0870,-0.0012,0.0202,0.0220,-0.0006,-10.6068,1.9898,-45.8806,
9.8870,-0.0948,-0.0158,1.0210,-0.0014,-0.0870,-0.0012,0.0202,0.0220,-0.0006,-10.6068,1.9898,-45.8806,
9.8880,-0.0948,-0.0158,1.0210,-0.0014,-0.0870,-0.0012,0.0202,0.0220,-0.0006,-10.5725,1.9640,-45.8167,
9.9100,-0.0952,-0.0162,1.0208,-0.0014,-0.0870,-0.0012,0.0202,0.0220,-0.0006,-10.5725,1.9640,-45.8167,
9.9120,-0.0952,-0.0162,1.0208,-0.0014,-0.0870,-0.0012,0.0169,0.0147,0.0003,-10.5725,1.9640,-45.8167,
9.9120,-0.0949,-0.0176,1.0218,-0.0014,-0.0870,-0.0012,0.0169,0.0147,0.0003,-10.5725,1.9640,-45.8167,
9.9300,-0.0959,-0.0177,1.0205,-0.0014,-0.0870,-0.0012,0.0169,0.0147,0.0003,-10.5725,1.9640,-45.8167,
9.9310,-0.0959,-0.0177,1.0205,0.0206,-0.0773,0.0038,0.0169,0.0147,0.0003,-10.5725,1.9640,-45.8167,
9.9320,-0.0959,-0.0177,1.0205,0.0206,-0.0773,0.0038,0.0159,0.0095,-0.0022,-10.5725,1.9640,-45.8167,
9.9540,-0.0949,-0.0151,1.0190,0.0206,-0.0773,0.0038,0.0159,0.0095,-0.0022,-10.5725,1.9640,-45.8167,
9.9560,-0.0949,-0.0151,1.0190,0.0206,-0.0773,0.0038,0.0159,0.0095,-0.0022,-10.5229,1.9642,-45.8792,
9.9750,-0.0959,-0.0140,1.0177,0.0206,-0.0773,0.0038,0.0159,0.0095,-0.0022,-10.5229,1.9642,-45.8792,
9.9770,-0.0959,-0.0140,1.0177,0.0206,-0.0773,0.0038,0.0150,-0.0015,-0.0019,-10.5229,1.9642,-45.8792,
9.9870,-0.0955,-0.0132,1.0181,0.0206,-0.0773,0.0038,0.0150,-0.0015,-0.0019,-10.5229,1.9642,-45.8792,
9.9890,-0.0955,-0.0132,1.0181,-0.0083,-0.0904,0.0109,0.0150,-0.0015,-0.0019,-10.5229,1.9642,-45.8792,
10.0220,-0.0966,-0.0134,1.0181,-0.0083,-0.0904,0.0109,0.0150,-0.0015,-0.0019,-10.5229,1.9642,-45.8792,
10.0240,-0.0966,-0.0134,1.0181,-0.0083,-0.0904,0.0109,0.0114,0.0021,-0.0016,-10.5229,1.9642,-45.8792,
10.0240,-0.0966,-0.0134,1.0181,-0.0083,-0.0904,0.0109,0.0114,0.0021,-0.0016,-10.4752,1.9357,-45.9179,
10.0440,-0.0972,-0.0135,1.0186,-0.0083,-0.0904,0.0109,0.0114,0.0021,-0.0016,-10.4752,1.9357,-45.9179,
10.0660,-0.0972,-0.0135,1.0186,-0.0083,-0.0904,0.0109,0.0065,0.0092,-0.0006,-10.4752,1.9357,-45.9179,
10.0670,-0.0972,-0.0151,1.0210,-0.0083,-0.0904,0.0109,0.0065,0.0092,-0.0006,-10.4752,1.9357,-45.9179,
10.0680,-0.0963,-0.0158,1.0207,-0.0083,-0.0904,0.0109,0.0065,0.0092,-0.0006,-10.4752,1.9357,-45.9179,
10.0690,-0.0963,-0.0158,1.0207,-0.0062,-0.0579,-0.0146,0.0065,0.0092,-0.0006,-10.4752,1.9357,-45.9179,
10.0870,-0.0956,-0.0155,1.0201,-0.0062,-0.0579,-0.0146,0.0065,0.0092,-0.0006,-10.4752,1.9357,-45.9179,
10.0880,-0.0956,-0.0155,1.0201,-0.0062,-0.0579,-0.0146,0.0147,0.0067,-0.0009,-10.4752,1.9357,-45.9179,
10.0890,-0.0956,-0.0155,1.0201,-0.0062,-0.0579,-0.0146,0.0147,0.0067,-0.0009,-10.3526,1.9395,-45.9647,
10.1090,-0.0945,-0.0163,1.0194,-0.0062,-0.0579,-0.0146,0.0147,0.0067,-0.0009,-10.3526,1.9395,-45.9647,
10.1240,-0.0953,-0.0155,1.0203,-0.0062,-0.0579,-0.0146,0.0147,0.0067,-0.0009,-10.3526,1.9395,-45.9647,
10.1250,-0.0953,-0.0155,1.0203,-0.0062,-0.0579,-0.0146,0.0227,0.0232,-0.0000,-10.3526,1.9395,-45.9647,
10.1260,-0.0953,-0.0155,1.0203,-0.0037,-0.0711,0.0021,0.0227,0.0232,-0.0000,-10.3526,1.9395,-45.9647,
10.1550,-0.0961,-0.0146,1.0191,-0.0037,-0.0711,0.0021,0.0227,0.0232,-0.0000,-10.3526,1.9395,-45.9647,
10.1570,-0.0961,-0.0146,1.0191,-0.0037,-0.0711,0.0021,0.0227,0.0232,-0.0000,-10.2905,1.9505,-46.0132,
10.1770,-0.0987,-0.0158,1.0194,-0.0037,-0.0711,0.0021,0.0227,0.0232,-0.0000,-10.2905,1.9505,-46.0132,
10.1790,-0.0987,-0.0158,1.0194,-0.0037,-0.0711,0.0021,0.0199,0.0293,0.0006,-10.2905,1.9505,-46.0132,
10.2030,-0.0987,-0.0158,1.0194,0.0143,-0.0814,0.0021,0.0199,0.0293,0.0006,-10.2905,1.9505,-46.0132,
10.2040,-0.0987,-0.0158,1.0194,0.0143,-0.0814,0.0021,0.0172,-0.0101,-0.0006,-10.2905,1.9505,-46.0132,
10.2050,-0.0985,-0.0172,1.0158,0.0143,-0.0814,0.0021,0.0172,-0.0101,-0.0006,-10.2905,1.9505,-46.0132,
10.2050,-0.0989,-0.0168,1.0131,0.0143,-0.0814,0.0021,0.0172,-0.0101,-0.0006,-10.2905,1.9505,-46.0132,
10.2220,-0.0989,-0.0168,1.0131,0.0143,-0.0814,0.0021,0.0172,-0.0101,-0.0006,-10.2278,1.9712,-46.0611,
10.2420,-0.1013,-0.0144,1.0133,0.0143,-0.0814,0.0021,0.0172,-0.0101,-0.0006,-10.2278,1.9712,-46.0611,
10.2430,-0.1013,-0.0144,1.0133,0.0143,-0.0814,0.0021,-0.0024,-0.0076,-0.0037,-10.2278,1.9712,-46.0611,
10.2440,-0.0988,-0.0144,1.0200,0.0143,-0.0814,0.0021,-0.0024,-0.0076,-0.0037,-10.2278,1.9712,-46.0611,
10.2600,-0.0988,-0.0144,1.0200,-0.0062,-0.0794,-0.0262,-0.0024,-0.0076,-0.0037,-10.2278,1.9712,-46.0611,
10.2610,-0.0936,-0.0151,1.0273,-0.0062,-0.0794,-0.0262,-0.0024,-0.0076,-0.0037,-10.2278,1.9712,-46.0611,
10.2880,-0.0936,-0.0151,1.0273,-0.0062,-0.0794,-0.0262,0.0059,0.0492,0.0046,-10.2278,1.9712,-46.0611,
10.2890,-0.0886,-0.0138,1.0304,-0.0062,-0.0794,-0.0262,0.0059,0.0492,0.0046,-10.2278,1.9712,-46.0611,
10.2890,-0.0886,-0.0138,1.0304,-0.0062,-0.0794,-0.0262,0.0059,0.0492,0.0046,-10.1042,1.9947,-46.1067,
10.3090,-0.0943,-0.0107,1.0266,-0.0062,-0.0794,-0.0262,0.0059,0.0492,0.0046,-10.1042,1.9947,-46.1067,
10.3400,-0.0943,-0.0107,1.0266,-0.0062,-0.0794,-0.0262,0.0297,0.0513,-0.0031,-10.1042,1.9947,-46.1067,
10.3420,-0.1025,-0.0121,1.0212,-0.0062,-0.0794,-0.0262,0.0297,0.0513,-0.0031,-10.1042,1.9947,-46.1067,
10.3420,-0.1087,-0.0149,1.0124,-0.0062,-0.0794,-0.0262,0.0297,0.0513,-0.0031,-10.1042,1.9947,-46.1067,
10.3430,-0.1087,-0.0149,1.0124,0.0258,-0.0704,0.0237,0.0297,0.0513,-0.0031,-10.1042,1.9947,-46.1067,
10.3540,-0.1087,-0.0149,1.0124,0.0258,-0.0704,0.0237,0.0297,0.0513,-0.0031,-9.9829,1.9797,-46.1291,
10.3760,-0.1087,-0.0149,1.0124,0.0258,-0.0704,0.0237,0.0254,-0.0837,-0.0034,-9.9829,1.9797,-46.1291,
10.3770,-0.1092,-0.0180,1.0058,0.0258,-0.0704,0.0237,0.0254,-0.0837,-0.0034,-9.9829,1.9797,-46.1291,
10.3980,-0.1057,-0.0178,1.0041,0.0258,-0.0704,0.0237,0.0254,-0.0837,-0.0034,-9.9829,1.9797,-46.1291,
10.4000,-0.1057,-0.0178,1.0041,-0.0571,-0.0542,0.0132,0.0254,-0.0837,-0.0034,-9.9829,1.9797,-46.1291,
10.4000,-0.0949,-0.0154,1.0100,-0.0571,-0.0542,0.0132,0.0254,-0.0837,-0.0034,-9.9829,1.9797,-46.1291,
10.4010,-0.0949,-0.0154,1.0100,-0.0571,-0.0542,0.0132,0.0101,-0.0901,-0.0037,-9.9829,1.9797,-46.1291,
10.4210,-0.0949,-0.0154,1.0100,-0.0571,-0.0542,0.0132,0.0101,-0.0901,-0.0037,-9.9820,1.9773,-46.2063,
10.4230,-0.0855,-0.0133,1.0180,-0.0571,-0.0542,0.0132,0.0101,-0.0901,-0.0037,-9.9820,1.9773,-46.2063,
10.4420,-0.0827,-0.0144,1.0245,-0.0571,-0.0542,0.0132,0.0101,-0.0901,-0.0037,-9.9820,1.9773,-46.2063,
10.4440,-0.0827,-0.0144,1.0245,-0.0571,-0.0542,0.0132,-0.0131,0.0702,0.0009,-9.9820,1.9773,-46.2063,
10.4760,-0.0827,-0.0144,1.0245,-0.0067,-0.0757,-0.1002,-0.0131,0.0702,0.0009,-9.9820,1.9773,-46.2063,
10.4790,-0.0827,-0.0144,1.0245,-0.0067,-0.0757,-0.1002,-0.0054,0.0874,0.0024,-9.9820,1.9773,-46.2063,
10.4790,-0.0891,-0.0162,1.0256,-0.0067,-0.0757,-0.1002,-0.0054,0.0874,0.0024,-9.9820,1.9773,-46.2063,
10.4800,-0.0993,-0.0185,1.0236,-0.0067,-0.0757,-0.1002,-0.0054,0.0874,0.0024,-9.9820,1.9773,-46.2063,
10.4870,-0.0993,-0.0185,1.0236,-0.0067,-0.0757,-0.1002,-0.0054,0.0874,0.0024,-9.9823,1.9670,-46.2198,
10.5100,-0.1062,-0.0194,1.0208,-0.0067,-0.0757,-0.1002,-0.0054,0.0874,0.0024,-9.9823,1.9670,-46.2198,
10.5340,-0.1084,-0.0187,1.0185,-0.0067,-0.0757,-0.1002,-0.0054,0.0874,0.0024,-9.9823,1.9670,-46.2198,
10.5360,-0.1084,-0.0187,1.0185,-0.0067,-0.0757,-0.1002,0.0129,0.0195,0.0027,-9.9823,1.9670,-46.2198,
10.5360,-0.1048,-0.0169,1.0170,-0.0067,-0.0757,-0.1002,0.0129,0.0195,0.0027,-9.9823,1.9670,-46.2198,
10.5370,-0.1048,-0.0169,1.0170,0.0995,-0.0713,0.0502,0.0129,0.0195,0.0027,-9.9823,1.9670,-46.2198,
10.5540,-0.1048,-0.0169,1.0170,0.0995,-0.0713,0.0502,0.0187,-0.0098,-0.0013,-9.9823,1.9670,-46.2198,
10.5560,-0.1048,-0.0169,1.0170,0.0995,-0.0713,0.0502,0.0187,-0.0098,-0.0013,-9.9928,2.0066,-46.1920,
10.5570,-0.1013,-0.0156,1.0153,0.0995,-0.0713,0.0502,0.0187,-0.0098,-0.0013,-9.9928,2.0066,-46.1920,
10.5760,-0.1005,-0.0156,1.0147,0.0995,-0.0713,0.0502,0.0187,-0.0098,-0.0013,-9.9928,2.0066,-46.1920,
10.6150,-0.1005,-0.0156,1.0147,0.0995,-0.0713,0.0502,0.0107,-0.0024,-0.0028,-9.9928,2.0066,-46.1920,
10.6160,-0.0994,-0.0156,1.0167,0.0995,-0.0713,0.0502,0.0107,-0.0024,-0.0028,-9.9928,2.0066,-46.1920,
10.6160,-0.1011,-0.0155,1.0201,0.0995,-0.0713,0.0502,0.0107,-0.0024,-0.0028,-9.9928,2.0066,-46.1920,
10.6170,-0.1011,-0.0155,1.0201,-0.0533,-0.0879,-0.0037,0.0107,-0.0024,-0.0028,-9.9928,2.0066,-46.1920,
10.6210,-0.1011,-0.0155,1.0201,-0.0533,-0.0879,-0.0037,0.0107,-0.0024,-0.0028,-10.0173,2.0169,-46.1409,
10.6420,-0.0997,-0.0143,1.0217,-0.0533,-0.0879,-0.0037,0.0107,-0.0024,-0.0028,-10.0173,2.0169,-46.1409,
10.6440,-0.0997,-0.0143,1.0217,-0.0533,-0.0879,-0.0037,0.0056,0.0199,-0.0022,-10.0173,2.0169,-46.1409,
10.6720,-0.0997,-0.0143,1.0217,0.0065,-0.0644,-0.0159,0.0056,0.0199,-0.0022,-10.0173,2.0169,-46.1409,
10.6730,-0.0997,-0.0143,1.0217,0.0065,-0.0644,-0.0159,0.0169,0.0110,0.0003,-10.0173,2.0169,-46.1409,
10.6740,-0.1020,-0.0154,1.0218,0.0065,-0.0644,-0.0159,0.0169,0.0110,0.0003,-10.0173,2.0169,-46.1409,
10.6760,-0.1049,-0.0162,1.0188,0.0065,-0.0644,-0.0159,0.0169,0.0110,0.0003,-10.0173,2.0169,-46.1409,
10.6880,-0.1049,-0.0162,1.0188,0.0065,-0.0644,-0.0159,0.0169,0.0110,0.0003,-10.0679,2.0081,-46.0404,
10.7090,-0.1044,-0.0172,1.0156,0.0065,-0.0644,-0.0159,0.0169,0.0110,0.0003,-10.0679,2.0081,-46.0404,
10.7100,-0.1022,-0.0177,1.0155,0.0065,-0.0644,-0.0159,0.0169,0.0110,0.0003,-10.0679,2.0081,-46.0404,
10.7110,-0.1022,-0.0177,1.0155,0.0065,-0.0644,-0.0159,0.0230,0.0027,0.0018,-10.0679,2.0081,-46.0404,
10.7500,-0.1022,-0.0177,1.0155,-0.0008,-0.0714,0.0147,0.0230,0.0027,0.0018,-10.0679,2.0081,-46.0404,
10.7510,-0.1022,-0.0177,1.0155,-0.0008,-0.0714,0.0147,0.0208,0.0330,-0.0003,-10.0679,2.0081,-46.0404,
10.7520,-0.1013,-0.0165,1.0188,-0.0008,-0.0714,0.0147,0.0208,0.0330,-0.0003,-10.0679,2.0081,-46.0404,
10.7520,-0.1026,-0.0157,1.0206,-0.0008,-0.0714,0.0147,0.0208,0.0330,-0.0003,-10.0679,2.0081,-46.0404,
10.7540,-0.1026,-0.0157,1.0206,-0.0008,-0.0714,0.0147,0.0208,0.0330,-0.0003,-10.1046,2.0179,-45.9897,
10.7760,-0.1018,-0.0145,1.0195,-0.0008,-0.0714,0.0147,0.0208,0.0330,-0.0003,-10.1046,2.0179,-45.9897,
10.8080,-0.1018,-0.0145,1.0195,0.0034,-0.0840,-0.0056,0.0208,0.0330,-0.0003,-10.1046,2.0179,-45.9897,
10.8100,-0.1018,-0.0145,1.0195,0.0034,-0.0840,-0.0056,0.0205,0.0110,-0.0019,-10.1046,2.0179,-45.9897,
10.8100,-0.1043,-0.0149,1.0168,0.0034,-0.0840,-0.0056,0.0205,0.0110,-0.0019,-10.1046,2.0179,-45.9897,
10.8110,-0.1042,-0.0157,1.0162,0.0034,-0.0840,-0.0056,0.0205,0.0110,-0.0019,-10.1046,2.0179,-45.9897,
10.8210,-0.1042,-0.0157,1.0162,0.0034,-0.0840,-0.0056,0.0205,0.0110,-0.0019,-10.1171,2.0182,-45.9644,
10.8430,-0.1042,-0.0157,1.0162,0.0034,-0.0840,-0.0056,0.0138,-0.0134,-0.0003,-10.1171,2.0182,-45.9644,
10.8440,-0.1037,-0.0163,1.0147,0.0034,-0.0840,-0.0056,0.0138,-0.0134,-0.0003,-10.1171,2.0182,-45.9644,
10.8870,-0.1026,-0.0167,1.0141,0.0034,-0.0840,-0.0056,0.0138,-0.0134,-0.0003,-10.1171,2.0182,-45.9644,
10.8890,-0.1018,-0.0161,1.0162,0.0034,-0.0840,-0.0056,0.0138,-0.0134,-0.0003,-10.1171,2.0182,-45.9644,
10.8890,-0.1026,-0.0167,1.0170,0.0034,-0.0840,-0.0056,0.0138,-0.0134,-0.0003,-10.1171,2.0182,-45.9644,
10.8900,-0.1026,-0.0167,1.0170,-0.0050,-0.0693,-0.0114,0.0138,-0.0134,-0.0003,-10.1171,2.0182,-45.9644,
10.8900,-0.1026,-0.0167,1.0170,-0.0050,-0.0693,-0.0114,0.0129,0.0027,-0.0000,-10.1171,2.0182,-45.9644,
10.8900,-0.1026,-0.0167,1.0170,-0.0050,-0.0693,-0.0114,0.0129,0.0027,-0.0000,-10.1171,2.0182,-45.9644,
10.9090,-0.1047,-0.0168,1.0178,-0.0050,-0.0693,-0.0114,0.0129,0.0027,-0.0000,-10.1171,2.0182,-45.9644,
10.9100,-0.1047,-0.0168,1.0178,-0.0050,-0.0693,-0.0114,0.0153,0.0205,-0.0003,-10.1171,2.0182,-45.9644,
10.9440,-0.1047,-0.0168,1.0178,0.0132,-0.0826,-0.0224,0.0153,0.0205,-0.0003,-10.1171,2.0182,-45.9644,
10.9460,-0.1047,-0.0168,1.0178,0.0132,-0.0826,-0.0224,0.0141,0.0131,-0.0000,-10.1171,2.0182,-45.9644,
10.9470,-0.1057,-0.0152,1.0180,0.0132,-0.0826,-0.0224,0.0141,0.0131,-0.0000,-10.1171,2.0182,-45.9644,
10.9470,-0.1074,-0.0145,1.0190,0.0132,-0.0826,-0.0224,0.0141,0.0131,-0.0000,-10.1171,2.0182,-45.9644,
10.9550,-0.1074,-0.0145,1.0190,0.0132,-0.0826,-0.0224,0.0141,0.0131,-0.0000,-10.0687,2.0101,-45.9761,
10.9770,-0.1064,-0.0144,1.0189,0.0132,-0.0826,-0.0224,0.0141,0.0131,-0.0000,-10.0687,2.0101,-45.9761,
11.0220,-0.1064,-0.0149,1.0190,0.0132,-0.0826,-0.0224,0.0141,0.0131,-0.0000,-10.0687,2.0101,-45.9761,
11.0230,-0.1064,-0.0149,1.0190,0.0132,-0.0826,-0.0224,0.0141,0.0131,-0.0000,-10.0438,2.0210,-45.9745,
11.0240,-0.1064,-0.0149,1.0190,0.0132,-0.0826,-0.0224,0.0135,0.0027,0.0003,-10.0438,2.0210,-45.9745,
11.0240,-0.1064,-0.0149,1.0190,0.0132,-0.0826,-0.0224,0.0123,0.0110,-0.0019,-10.0438,2.0210,-45.9745,
11.0250,-0.1041,-0.0180,1.0195,0.0132,-0.0826,-0.0224,0.0123,0.0110,-0.0019,-10.0438,2.0210,-45.9745,
11.0250,-0.1049,-0.0160,1.0179,0.0132,-0.0826,-0.0224,0.0123,0.0110,-0.0019,-10.0438,2.0210,-45.9745,
11.0260,-0.1049,-0.0160,1.0179,-0.0144,-0.0704,0.0045,0.0123,0.0110,-0.0019,-10.0438,2.0210,-45.9745,
11.0440,-0.1041,-0.0139,1.0156,-0.0144,-0.0704,0.0045,0.0123,0.0110,-0.0019,-10.0438,2.0210,-45.9745,
11.0830,-0.1031,-0.0133,1.0155,-0.0144,-0.0704,0.0045,0.0123,0.0110,-0.0019,-10.0438,2.0210,-45.9745,
11.0840,-0.1043,-0.0138,1.0166,-0.0144,-0.0704,0.0045,0.0123,0.0110,-0.0019,-10.0438,2.0210,-45.9745,
11.0850,-0.1043,-0.0138,1.0166,0.0030,-0.0769,0.0086,0.0123,0.0110,-0.0019,-10.0438,2.0210,-45.9745,
11.0850,-0.1043,-0.0138,1.0166,0.0030,-0.0769,0.0086,0.0129,0.0147,-0.0006,-10.0438,2.0210,-45.9745,
11.0880,-0.1043,-0.0138,1.0166,0.0030,-0.0769,0.0086,0.0129,0.0147,-0.0006,-9.9957,2.0028,-45.9997,
11.1110,-0.1043,-0.0138,1.0166,0.0030,-0.0769,0.0086,0.0141,0.0171,0.0021,-9.9957,2.0028,-45.9997,
11.1120,-0.1057,-0.0185,1.0172,0.0030,-0.0769,0.0086,0.0141,0.0171,0.0021,-9.9957,2.0028,-45.9997,
11.1540,-0.1059,-0.0188,1.0141,0.0030,-0.0769,0.0086,0.0141,0.0171,0.0021,-9.9957,2.0028,-45.9997,
11.1550,-0.1059,-0.0188,1.0141,0.0030,-0.0769,0.0086,0.0141,0.0171,0.0021,-9.9465,1.9817,-46.1149,
11.1560,-0.1059,-0.0188,1.0141,0.0030,-0.0769,0.0086,0.0089,-0.0012,0.0018,-9.9465,1.9817,-46.1149,
11.1570,-0.1076,-0.0160,1.0122,0.0030,-0.0769,0.0086,0.0089,-0.0012,0.0018,-9.9465,1.9817,-46.1149,
11.1590,-0.1098,-0.0155,1.0170,0.0030,-0.0769,0.0086,0.0089,-0.0012,0.0018,-9.9465,1.9817,-46.1149,
11.1600,-0.1098,-0.0155,1.0170,0.0133,-0.0555,-0.0149,0.0089,-0.0012,0.0018,-9.9465,1.9817,-46.1149,
11.2190,-0.1098,-0.0155,1.0170,-0.0014,-0.0779,-0.0249,0.0089,-0.0012,0.0018,-9.9465,1.9817,-46.1149,
11.2210,-0.1098,-0.0155,1.0170,-0.0014,-0.0779,-0.0249,-0.0119,0.0012,-0.0013,-9.9465,1.9817,-46.1149,
11.2220,-0.1092,-0.0167,1.0245,-0.0014,-0.0779,-0.0249,-0.0119,0.0012,-0.0013,-9.9465,1.9817,-46.1149,
11.2230,-0.1092,-0.0167,1.0245,-0.0014,-0.0779,-0.0249,0.0098,0.0327,0.0049,-9.9465,1.9817,-46.1149,
