
time,gFx,gFy,gFz,ax,ay,az,wx,wy,wz,Bx,By,Bz,
0.0530,0.0000,0.0000,0.0000,0.0000,0.0000,0.0000,0.0388,0.0769,0.0020,0.0000,0.0000,0.0000,
0.0530,0.0122,-0.1886,0.9772,0.0000,0.0000,0.0000,0.0388,0.0769,0.0020,0.0000,0.0000,0.0000,
0.1120,0.0234,-0.1982,1.0240,0.0000,0.0000,0.0000,0.0388,0.0769,0.0020,0.0000,0.0000,0.0000,
0.1130,0.0260,-0.1993,1.0147,0.0000,0.0000,0.0000,0.0388,0.0769,0.0020,0.0000,0.0000,0.0000,
0.1130,0.0180,-0.1971,0.9979,0.0000,0.0000,0.0000,0.0388,0.0769,0.0020,0.0000,0.0000,0.0000,
0.1140,0.0180,-0.1971,0.9979,0.0000,0.0000,0.0000,-0.0534,-0.0410,-0.0014,0.0000,0.0000,0.0000,
0.1140,0.0180,-0.1971,0.9979,0.0000,0.0000,0.0000,-0.0534,-0.0410,-0.0014,1.1483,28.6273,-38.9737,
0.1510,0.0214,-0.1999,0.9991,0.0000,0.0000,0.0000,-0.0534,-0.0410,-0.0014,1.1483,28.6273,-38.9737,
0.1520,0.0214,-0.1999,0.9991,0.0000,0.0000,0.0000,-0.0250,0.0097,-0.0029,1.1483,28.6273,-38.9737,
0.1530,0.0214,-0.1999,0.9991,0.0000,0.0000,0.0000,-0.0220,-0.0065,-0.0029,1.1483,28.6273,-38.9737,
0.1530,0.0233,-0.2030,1.0139,0.0000,0.0000,0.0000,-0.0220,-0.0065,-0.0029,1.1483,28.6273,-38.9737,
0.1530,0.0199,-0.1986,1.0039,0.0000,0.0000,0.0000,-0.0220,-0.0065,-0.0029,1.1483,28.6273,-38.9737,
0.1540,0.0199,-0.1986,1.0039,0.0000,0.0000,0.0000,-0.0220,-0.0065,-0.0029,1.1483,28.6273,-38.9737,
0.1700,0.0199,-0.1986,1.0039,0.0000,0.0000,0.0000,-0.0220,-0.0065,-0.0029,0.7942,28.6762,-39.0287,
0.1710,0.0212,-0.1959,1.0023,0.0000,0.0000,0.0000,-0.0220,-0.0065,-0.0029,0.7942,28.6762,-39.0287,
0.2290,0.0212,-0.1959,1.0023,0.0000,0.0000,0.0000,-0.0281,-0.0037,0.0004,0.7942,28.6762,-39.0287,
0.2300,0.0220,-0.1939,1.0078,0.0000,0.0000,0.0000,-0.0281,-0.0037,0.0004,0.7942,28.6762,-39.0287,
0.2310,0.0194,-0.1950,1.0104,0.0000,0.0000,0.0000,-0.0281,-0.0037,0.0004,0.7942,28.6762,-39.0287,
0.2320,0.0184,-0.1974,1.0112,0.0000,0.0000,0.0000,-0.0281,-0.0037,0.0004,0.7942,28.6762,-39.0287,
0.2320,0.0184,-0.1974,1.0112,-0.0020,-0.0063,-0.0184,-0.0281,-0.0037,0.0004,0.7942,28.6762,-39.0287,
0.2330,0.0184,-0.1974,1.0112,-0.0020,-0.0063,-0.0184,-0.0302,-0.0058,-0.0014,0.7942,28.6762,-39.0287,
0.2500,0.0173,-0.1991,1.0104,-0.0020,-0.0063,-0.0184,-0.0302,-0.0058,-0.0014,0.7942,28.6762,-39.0287,
0.2500,0.0173,-0.1991,1.0104,-0.0020,-0.0063,-0.0184,-0.0302,-0.0058,-0.0014,0.6709,28.7103,-39.0243,
0.2870,0.0173,-0.1991,1.0104,-0.0020,-0.0063,-0.0184,-0.0202,-0.0068,0.0007,0.6709,28.7103,-39.0243,
0.2880,0.0197,-0.2002,1.0096,-0.0020,-0.0063,-0.0184,-0.0202,-0.0068,0.0007,0.6709,28.7103,-39.0243,
0.2880,0.0176,-0.1998,1.0101,-0.0020,-0.0063,-0.0184,-0.0202,-0.0068,0.0007,0.6709,28.7103,-39.0243,
0.2890,0.0176,-0.1998,1.0101,-0.0097,0.0388,0.0154,-0.0202,-0.0068,0.0007,0.6709,28.7103,-39.0243,
0.3110,0.0176,-0.1998,1.0101,-0.0097,0.0388,0.0154,-0.0168,-0.0058,0.0007,0.6709,28.7103,-39.0243,
0.3110,0.0187,-0.1996,1.0040,-0.0097,0.0388,0.0154,-0.0168,-0.0058,0.0007,0.6709,28.7103,-39.0243,
0.3120,0.0187,-0.1996,1.0040,-0.0097,0.0388,0.0154,-0.0168,-0.0058,0.0007,0.6409,28.7089,-38.9904,
0.3650,0.0187,-0.1996,1.0040,-0.0097,0.0388,0.0154,-0.0275,-0.0141,0.0011,0.6409,28.7089,-38.9904,
0.3660,0.0180,-0.1996,1.0015,-0.0097,0.0388,0.0154,-0.0275,-0.0141,0.0011,0.6409,28.7089,-38.9904,
0.3670,0.0198,-0.2025,1.0030,-0.0097,0.0388,0.0154,-0.0275,-0.0141,0.0011,0.6409,28.7089,-38.9904,
0.3670,0.0233,-0.2031,1.0079,-0.0097,0.0388,0.0154,-0.0275,-0.0141,0.0011,0.6409,28.7089,-38.9904,
0.3680,0.0233,-0.2031,1.0079,-0.0269,0.0065,0.0168,-0.0275,-0.0141,0.0011,0.6409,28.7089,-38.9904,
0.3700,0.0233,-0.2031,1.0079,-0.0269,0.0065,0.0168,-0.0275,-0.0141,0.0011,0.6806,28.7335,-39.0054,
0.4250,0.0233,-0.2031,1.0079,-0.0143,0.0068,-0.0250,-0.0275,-0.0141,0.0011,0.6806,28.7335,-39.0054,
0.4270,0.0249,-0.2032,1.0064,-0.0143,0.0068,-0.0250,-0.0275,-0.0141,0.0011,0.6806,28.7335,-39.0054,
0.4280,0.0249,-0.2032,1.0064,-0.0143,0.0068,-0.0250,-0.0272,-0.0132,-0.0005,0.6806,28.7335,-39.0054,
0.4280,0.0248,-0.2021,1.0046,-0.0143,0.0068,-0.0250,-0.0272,-0.0132,-0.0005,0.6806,28.7335,-39.0054,
0.4290,0.0248,-0.2021,1.0046,-0.0143,0.0068,-0.0250,-0.0272,-0.0062,-0.0017,0.6806,28.7335,-39.0054,
0.4300,0.0255,-0.2027,1.0028,-0.0143,0.0068,-0.0250,-0.0272,-0.0062,-0.0017,0.6806,28.7335,-39.0054,
0.4440,0.0249,-0.2035,1.0047,-0.0143,0.0068,-0.0250,-0.0272,-0.0062,-0.0017,0.6806,28.7335,-39.0054,
0.4500,0.0249,-0.2035,1.0047,-0.0143,0.0068,-0.0250,-0.0272,-0.0062,-0.0017,0.6248,28.7844,-39.0108,
0.5020,0.0209,-0.2026,1.0036,-0.0143,0.0068,-0.0250,-0.0272,-0.0062,-0.0017,0.6248,28.7844,-39.0108,
0.5030,0.0209,-0.2026,1.0036,-0.0143,0.0068,-0.0250,-0.0345,-0.0025,-0.0008,0.6248,28.7844,-39.0108,
0.5040,0.0209,-0.2026,1.0036,-0.0143,0.0068,-0.0250,-0.0424,-0.0031,0.0014,0.6248,28.7844,-39.0108,
0.5050,0.0212,-0.2033,1.0122,-0.0143,0.0068,-0.0250,-0.0424,-0.0031,0.0014,0.6248,28.7844,-39.0108,
0.5050,0.0216,-0.2024,1.0186,-0.0143,0.0068,-0.0250,-0.0424,-0.0031,0.0014,0.6248,28.7844,-39.0108,
0.5060,0.0216,-0.2024,1.0186,0.0255,0.0113,-0.0108,-0.0424,-0.0031,0.0014,0.6248,28.7844,-39.0108,
0.5100,0.0216,-0.2024,1.0186,0.0255,0.0113,-0.0108,-0.0424,-0.0031,0.0014,0.5989,28.8259,-38.9888,
0.5610,0.0216,-0.2024,1.0186,0.0255,0.0113,-0.0108,-0.0412,-0.0092,0.0047,0.5989,28.8259,-38.9888,
0.5620,0.0170,-0.2020,0.9999,0.0255,0.0113,-0.0108,-0.0412,-0.0092,0.0047,0.5989,28.8259,-38.9888,
0.5630,0.0170,-0.2020,0.9999,-0.0082,0.0322,0.0419,-0.0412,-0.0092,0.0047,0.5989,28.8259,-38.9888,
0.5630,0.0198,-0.2058,0.9877,-0.0082,0.0322,0.0419,-0.0412,-0.0092,0.0047,0.5989,28.8259,-38.9888,
0.5640,0.0276,-0.2112,1.0139,-0.0082,0.0322,0.0419,-0.0412,-0.0092,0.0047,0.5989,28.8259,-38.9888,
0.5710,0.0276,-0.2112,1.0139,-0.0082,0.0322,0.0419,-0.0412,-0.0092,0.0047,0.6442,28.8738,-38.9440,
0.6400,0.0344,-0.2129,1.0186,-0.0082,0.0322,0.0419,-0.0412,-0.0092,0.0047,0.6442,28.8738,-38.9440,
0.6410,0.0344,-0.2129,1.0186,-0.0082,0.0322,0.0419,-0.0269,-0.0300,0.0066,0.6442,28.8738,-38.9440,
0.6410,0.0344,-0.2129,1.0186,-0.0082,0.0322,0.0419,0.0034,-0.0165,0.0062,0.6442,28.8738,-38.9440,
0.6420,0.0200,-0.2066,0.9886,-0.0082,0.0322,0.0419,0.0034,-0.0165,0.0062,0.6442,28.8738,-38.9440,
0.6430,0.0225,-0.2025,1.0009,-0.0082,0.0322,0.0419,0.0034,-0.0165,0.0062,0.6442,28.8738,-38.9440,
0.6440,0.0253,-0.1987,1.0120,-0.0082,0.0322,0.0419,0.0034,-0.0165,0.0062,0.6442,28.8738,-38.9440,
0.6440,0.0253,-0.1987,1.0120,-0.0022,0.0065,-0.0114,0.0034,-0.0165,0.0062,0.6442,28.8738,-38.9440,
0.6500,0.0253,-0.1987,1.0120,-0.0022,0.0065,-0.0114,0.0034,-0.0165,0.0062,0.6054,28.9512,-38.9124,
0.6970,0.0253,-0.1987,1.0120,-0.0022,0.0065,-0.0114,-0.0037,-0.0058,0.0075,0.6054,28.9512,-38.9124,
0.6980,0.0217,-0.1966,1.0059,-0.0022,0.0065,-0.0114,-0.0037,-0.0058,0.0075,0.6054,28.9512,-38.9124,
0.6980,0.0193,-0.2003,1.0015,-0.0022,0.0065,-0.0114,-0.0037,-0.0058,0.0075,0.6054,28.9512,-38.9124,
0.6990,0.0197,-0.2087,1.0090,-0.0022,0.0065,-0.0114,-0.0037,-0.0058,0.0075,0.6054,28.9512,-38.9124,
0.7000,0.0197,-0.2087,1.0090,-0.0022,0.0065,-0.0114,-0.0397,-0.0260,0.0078,0.6054,28.9512,-38.9124,
0.7000,0.0197,-0.2087,1.0090,-0.0069,0.0352,-0.0303,-0.0397,-0.0260,0.0078,0.6054,28.9512,-38.9124,
0.7110,0.0197,-0.2087,1.0090,-0.0069,0.0352,-0.0303,-0.0397,-0.0260,0.0078,0.6283,29.0203,-38.8635,
0.7440,0.0250,-0.2142,1.0119,-0.0069,0.0352,-0.0303,-0.0397,-0.0260,0.0078,0.6283,29.0203,-38.8635,
0.7450,0.0250,-0.2142,1.0119,-0.0069,0.0352,-0.0303,-0.0302,-0.0199,0.0078,0.6283,29.0203,-38.8635,
0.7460,0.0271,-0.2156,1.0067,-0.0069,0.0352,-0.0303,-0.0302,-0.0199,0.0078,0.6283,29.0203,-38.8635,
0.7710,0.0271,-0.2179,1.0056,-0.0069,0.0352,-0.0303,-0.0302,-0.0199,0.0078,0.6283,29.0203,-38.8635,
0.7720,0.0271,-0.2179,1.0056,-0.0069,0.0352,-0.0303,-0.0302,-0.0199,0.0078,0.6689,29.0989,-38.7992,
0.7750,0.0271,-0.2179,1.0056,-0.0069,0.0352,-0.0303,-0.0250,-0.0092,0.0124,0.6689,29.0989,-38.7992,
0.7760,0.0289,-0.2168,1.0068,-0.0069,0.0352,-0.0303,-0.0250,-0.0092,0.0124,0.6689,29.0989,-38.7992,
0.7770,0.0289,-0.2168,1.0068,-0.0469,0.0572,0.0163,-0.0250,-0.0092,0.0124,0.6689,29.0989,-38.7992,
0.8350,0.0272,-0.2156,1.0030,-0.0469,0.0572,0.0163,-0.0250,-0.0092,0.0124,0.6689,29.0989,-38.7992,
0.8360,0.0272,-0.2156,1.0030,-0.0469,0.0572,0.0163,-0.0226,-0.0049,0.0099,0.6689,29.0989,-38.7992,
0.8360,0.0270,-0.2149,1.0053,-0.0469,0.0572,0.0163,-0.0226,-0.0049,0.0099,0.6689,29.0989,-38.7992,
0.8370,0.0277,-0.2125,1.0050,-0.0469,0.0572,0.0163,-0.0226,-0.0049,0.0099,0.6689,29.0989,-38.7992,
0.8380,0.0277,-0.2125,1.0050,0.0136,-0.0470,0.0253,-0.0226,-0.0049,0.0099,0.6689,29.0989,-38.7992,
0.8500,0.0277,-0.2125,1.0050,0.0136,-0.0470,0.0253,-0.0226,-0.0049,0.0099,0.6874,29.1598,-38.7867,
0.9130,0.0277,-0.2125,1.0050,0.0119,-0.0066,-0.0038,-0.0226,-0.0049,0.0099,0.6874,29.1598,-38.7867,
0.9140,0.0259,-0.2088,1.0003,0.0119,-0.0066,-0.0038,-0.0226,-0.0049,0.0099,0.6874,29.1598,-38.7867,
0.9150,0.0241,-0.2080,0.9953,0.0119,-0.0066,-0.0038,-0.0226,-0.0049,0.0099,0.6874,29.1598,-38.7867,
0.9150,0.0244,-0.2119,1.0012,0.0119,-0.0066,-0.0038,-0.0226,-0.0049,0.0099,0.6874,29.1598,-38.7867,
0.9170,0.0276,-0.2147,1.0087,0.0119,-0.0066,-0.0038,-0.0226,-0.0049,0.0099,0.6874,29.1598,-38.7867,
0.9180,0.0276,-0.2147,1.0087,0.0119,-0.0066,-0.0038,-0.0128,0.0042,0.0038,0.6874,29.1598,-38.7867,
0.9180,0.0276,-0.2147,1.0087,0.0119,-0.0066,-0.0038,-0.0128,0.0042,0.0038,0.6222,29.2263,-38.7461,
0.9190,0.0276,-0.2147,1.0087,0.0119,-0.0066,-0.0038,-0.0278,0.0052,0.0014,0.6222,29.2263,-38.7461,
0.9710,0.0276,-0.2147,1.0087,-0.0065,0.0274,-0.0230,-0.0278,0.0052,0.0014,0.6222,29.2263,-38.7461,
0.9720,0.0276,-0.2147,1.0087,-0.0065,0.0274,-0.0230,-0.0128,-0.0037,0.0035,0.6222,29.2263,-38.7461,
0.9730,0.0260,-0.2135,1.0064,-0.0065,0.0274,-0.0230,-0.0128,-0.0037,0.0035,0.6222,29.2263,-38.7461,
0.9730,0.0260,-0.2135,1.0064,-0.0065,0.0274,-0.0230,0.0025,0.0195,0.0050,0.6222,29.2263,-38.7461,
0.9740,0.0209,-0.2090,0.9991,-0.0065,0.0274,-0.0230,0.0025,0.0195,0.0050,0.6222,29.2263,-38.7461,
0.9740,0.0175,-0.2059,0.9932,-0.0065,0.0274,-0.0230,0.0025,0.0195,0.0050,0.6222,29.2263,-38.7461,
0.9750,0.0175,-0.2059,0.9932,-0.0065,0.0274,-0.0230,0.0025,0.0195,0.0050,0.6641,29.2702,-38.6965,
1.0440,0.0178,-0.2073,1.0020,-0.0065,0.0274,-0.0230,0.0025,0.0195,0.0050,0.6641,29.2702,-38.6965,
1.0450,0.0178,-0.2073,1.0020,-0.0065,0.0274,-0.0230,-0.0226,-0.0187,0.0041,0.6641,29.2702,-38.6965,
1.0460,0.0221,-0.2092,1.0067,-0.0065,0.0274,-0.0230,-0.0226,-0.0187,0.0041,0.6641,29.2702,-38.6965,
1.0460,0.0206,-0.2116,1.0043,-0.0065,0.0274,-0.0230,-0.0226,-0.0187,0.0041,0.6641,29.2702,-38.6965,
1.0480,0.0206,-0.2116,1.0043,-0.0438,0.0478,-0.0359,-0.0226,-0.0187,0.0041,0.6641,29.2702,-38.6965,
1.0480,0.0206,-0.2116,1.0043,-0.0438,0.0478,-0.0359,0.0025,-0.0028,0.0026,0.6641,29.2702,-38.6965,
1.0490,0.0212,-0.2151,1.0003,-0.0438,0.0478,-0.0359,0.0025,-0.0028,0.0026,0.6641,29.2702,-38.6965,
1.0500,0.0212,-0.2151,1.0003,-0.0438,0.0478,-0.0359,0.0025,-0.0028,0.0026,0.6601,29.3113,-38.6587,
1.1080,0.0212,-0.2151,1.0003,-0.0385,0.0256,0.0074,0.0025,-0.0028,0.0026,0.6601,29.3113,-38.6587,
1.1090,0.0212,-0.2151,1.0003,-0.0385,0.0256,0.0074,-0.0104,-0.0113,0.0004,0.6601,29.3113,-38.6587,
1.1100,0.0228,-0.2163,1.0006,-0.0385,0.0256,0.0074,-0.0104,-0.0113,0.0004,0.6601,29.3113,-38.6587,
1.1110,0.0226,-0.2170,1.0032,-0.0385,0.0256,0.0074,-0.0104,-0.0113,0.0004,0.6601,29.3113,-38.6587,
1.1120,0.0230,-0.2156,1.0060,-0.0385,0.0256,0.0074,-0.0104,-0.0113,0.0004,0.6601,29.3113,-38.6587,
1.1130,0.0230,-0.2156,1.0060,-0.0385,0.0256,0.0074,-0.0104,-0.0113,0.0004,0.6018,29.3455,-38.6484,
1.1700,0.0231,-0.2147,1.0041,-0.0385,0.0256,0.0074,-0.0104,-0.0113,0.0004,0.6018,29.3455,-38.6484,
1.1710,0.0231,-0.2147,1.0041,-0.0385,0.0256,0.0074,0.0000,-0.0037,-0.0005,0.6018,29.3455,-38.6484,
1.1720,0.0231,-0.2147,1.0041,-0.0385,0.0256,0.0074,0.0040,-0.0055,-0.0008,0.6018,29.3455,-38.6484,
1.1730,0.0220,-0.2142,1.0031,-0.0385,0.0256,0.0074,0.0040,-0.0055,-0.0008,0.6018,29.3455,-38.6484,
1.1740,0.0226,-0.2129,1.0004,-0.0385,0.0256,0.0074,0.0040,-0.0055,-0.0008,0.6018,29.3455,-38.6484,
1.1740,0.0226,-0.2129,1.0004,-0.0385,0.0256,0.0074,0.0040,-0.0055,-0.0008,0.5603,29.3634,-38.6468,
1.1850,0.0226,-0.2119,0.9911,-0.0385,0.0256,0.0074,0.0040,-0.0055,-0.0008,0.5603,29.3634,-38.6468,
1.1860,0.0226,-0.2119,0.9911,-0.0228,-0.0182,0.0034,0.0040,-0.0055,-0.0008,0.5603,29.3634,-38.6468,
1.2470,0.0250,-0.2130,1.0015,-0.0228,-0.0182,0.0034,0.0040,-0.0055,-0.0008,0.5603,29.3634,-38.6468,
1.2480,0.0250,-0.2130,1.0015,-0.0278,0.0137,-0.0363,0.0040,-0.0055,-0.0008,0.5603,29.3634,-38.6468,
1.2490,0.0283,-0.2136,1.0081,-0.0278,0.0137,-0.0363,0.0040,-0.0055,-0.0008,0.5603,29.3634,-38.6468,
1.2490,0.0283,-0.2136,1.0081,-0.0278,0.0137,-0.0363,-0.0134,-0.0055,-0.0029,0.5603,29.3634,-38.6468,
1.2500,0.0254,-0.2118,1.0039,-0.0278,0.0137,-0.0363,-0.0134,-0.0055,-0.0029,0.5603,29.3634,-38.6468,
1.2500,0.0254,-0.2118,1.0039,-0.0278,0.0137,-0.0363,0.0000,-0.0058,-0.0038,0.5603,29.3634,-38.6468,
1.2510,0.0254,-0.2118,1.0039,-0.0278,0.0137,-0.0363,0.0000,-0.0058,-0.0038,0.5372,29.3761,-38.6261,
1.3110,0.0254,-0.2118,1.0039,-0.0278,0.0137,-0.0363,0.0006,-0.0013,-0.0029,0.5372,29.3761,-38.6261,
1.3120,0.0233,-0.2099,0.9992,-0.0278,0.0137,-0.0363,0.0006,-0.0013,-0.0029,0.5372,29.3761,-38.6261,
1.3130,0.0254,-0.2092,1.0073,-0.0278,0.0137,-0.0363,0.0006,-0.0013,-0.0029,0.5372,29.3761,-38.6261,
1.3130,0.0238,-0.2066,1.0056,-0.0278,0.0137,-0.0363,0.0006,-0.0013,-0.0029,0.5372,29.3761,-38.6261,
1.3140,0.0238,-0.2066,1.0056,-0.0278,0.0137,-0.0363,0.0006,-0.0013,-0.0029,0.5101,29.3766,-38.6291,
1.3220,0.0238,-0.2066,1.0056,-0.0278,0.0137,-0.0363,-0.0162,-0.0022,-0.0020,0.5101,29.3766,-38.6291,
1.3230,0.0211,-0.2091,0.9926,-0.0278,0.0137,-0.0363,-0.0162,-0.0022,-0.0020,0.5101,29.3766,-38.6291,
1.3230,0.0211,-0.2091,0.9926,0.0022,0.0179,0.0120,-0.0162,-0.0022,-0.0020,0.5101,29.3766,-38.6291,
1.3710,0.0211,-0.2091,0.9926,0.0022,0.0179,0.0120,-0.0278,-0.0220,0.0026,0.5101,29.3766,-38.6291,
1.3710,0.0254,-0.2132,0.9850,0.0022,0.0179,0.0120,-0.0278,-0.0220,0.0026,0.5101,29.3766,-38.6291,
1.3720,0.0311,-0.2196,1.0207,0.0022,0.0179,0.0120,-0.0278,-0.0220,0.0026,0.5101,29.3766,-38.6291,
1.3740,0.0311,-0.2196,1.0207,0.0022,0.0179,0.0120,-0.0278,-0.0220,0.0026,0.5148,29.4118,-38.6043,
1.3800,0.0333,-0.2198,1.0156,0.0022,0.0179,0.0120,-0.0278,-0.0220,0.0026,0.5148,29.4118,-38.6043,
1.3800,0.0333,-0.2198,1.0156,-0.0225,0.0616,-0.0115,-0.0278,-0.0220,0.0026,0.5148,29.4118,-38.6043,
1.4450,0.0333,-0.2198,1.0156,-0.0225,0.0616,-0.0115,0.0107,-0.0107,0.0011,0.5148,29.4118,-38.6043,
1.4450,0.0192,-0.2154,0.9900,-0.0225,0.0616,-0.0115,0.0107,-0.0107,0.0011,0.5148,29.4118,-38.6043,
1.4460,0.0245,-0.2114,1.0051,-0.0225,0.0616,-0.0115,0.0107,-0.0107,0.0011,0.5148,29.4118,-38.6043,
1.4470,0.0266,-0.2062,1.0030,-0.0225,0.0616,-0.0115,0.0107,-0.0107,0.0011,0.5148,29.4118,-38.6043,
1.4470,0.0266,-0.2062,1.0030,-0.0225,0.0616,-0.0115,0.0150,-0.0000,0.0023,0.5148,29.4118,-38.6043,
1.4500,0.0266,-0.2062,1.0030,-0.0225,0.0616,-0.0115,0.0150,-0.0000,0.0023,0.5661,29.4187,-38.5971,
1.4580,0.0216,-0.2053,0.9962,-0.0225,0.0616,-0.0115,0.0150,-0.0000,0.0023,0.5661,29.4187,-38.5971,
1.4600,0.0216,-0.2053,0.9962,0.0144,-0.0259,0.0247,0.0150,-0.0000,0.0023,0.5661,29.4187,-38.5971,
1.5100,0.0216,-0.2120,1.0048,0.0144,-0.0259,0.0247,0.0150,-0.0000,0.0023,0.5661,29.4187,-38.5971,
1.5110,0.0222,-0.2195,1.0070,0.0144,-0.0259,0.0247,0.0150,-0.0000,0.0023,0.5661,29.4187,-38.5971,
1.5120,0.0222,-0.2195,1.0070,0.0144,-0.0259,0.0247,-0.0296,-0.0080,-0.0023,0.5661,29.4187,-38.5971,
1.5130,0.0222,-0.2195,1.0070,0.0144,-0.0259,0.0247,-0.0296,-0.0080,-0.0023,0.5447,29.4369,-38.5785,
1.5190,0.0252,-0.2179,1.0069,0.0144,-0.0259,0.0247,-0.0296,-0.0080,-0.0023,0.5447,29.4369,-38.5785,
1.5190,0.0252,-0.2179,1.0069,0.0144,-0.0259,0.0247,-0.0052,-0.0034,-0.0008,0.5447,29.4369,-38.5785,
1.5200,0.0252,-0.2179,1.0069,-0.0323,0.0640,-0.0281,-0.0052,-0.0034,-0.0008,0.5447,29.4369,-38.5785,
1.5710,0.0252,-0.2179,1.0069,-0.0323,0.0640,-0.0281,-0.0052,-0.0034,-0.0008,0.5938,29.4395,-38.5858,
1.5730,0.0234,-0.2153,1.0063,-0.0323,0.0640,-0.0281,-0.0052,-0.0034,-0.0008,0.5938,29.4395,-38.5858,
1.5750,0.0241,-0.2129,1.0053,-0.0323,0.0640,-0.0281,-0.0052,-0.0034,-0.0008,0.5938,29.4395,-38.5858,
1.5750,0.0241,-0.2129,1.0053,-0.0323,0.0640,-0.0281,0.0070,-0.0040,-0.0032,0.5938,29.4395,-38.5858,
1.5780,0.0252,-0.2120,1.0034,-0.0323,0.0640,-0.0281,0.0070,-0.0040,-0.0032,0.5938,29.4395,-38.5858,
1.5950,0.0252,-0.2120,1.0034,-0.0323,0.0640,-0.0281,0.0110,-0.0037,-0.0029,0.5938,29.4395,-38.5858,
1.5950,0.0258,-0.2109,1.0056,-0.0323,0.0640,-0.0281,0.0110,-0.0037,-0.0029,0.5938,29.4395,-38.5858,
1.5960,0.0258,-0.2109,1.0056,-0.0341,-0.0121,0.0369,0.0110,-0.0037,-0.0029,0.5938,29.4395,-38.5858,
1.6440,0.0267,-0.2103,1.0031,-0.0341,-0.0121,0.0369,0.0110,-0.0037,-0.0029,0.5938,29.4395,-38.5858,
1.6460,0.0267,-0.2103,1.0031,-0.0341,-0.0121,0.0369,0.0076,-0.0022,-0.0005,0.5938,29.4395,-38.5858,
1.6460,0.0269,-0.2091,1.0023,-0.0341,-0.0121,0.0369,0.0076,-0.0022,-0.0005,0.5938,29.4395,-38.5858,
1.6520,0.0269,-0.2091,1.0023,-0.0341,-0.0121,0.0369,0.0076,-0.0022,-0.0005,0.6100,29.4184,-38.5936,
1.6540,0.0280,-0.2107,1.0076,-0.0341,-0.0121,0.0369,0.0076,-0.0022,-0.0005,0.6100,29.4184,-38.5936,
1.6540,0.0280,-0.2107,1.0076,-0.0193,0.0166,0.0183,0.0076,-0.0022,-0.0005,0.6100,29.4184,-38.5936,
1.7110,0.0258,-0.2094,0.9995,-0.0193,0.0166,0.0183,0.0076,-0.0022,-0.0005,0.6100,29.4184,-38.5936,
1.7120,0.0248,-0.2118,0.9999,-0.0193,0.0166,0.0183,0.0076,-0.0022,-0.0005,0.6100,29.4184,-38.5936,
1.7120,0.0248,-0.2118,0.9999,-0.0193,0.0166,0.0183,0.0076,-0.0022,-0.0005,0.6078,29.4059,-38.5628,
1.7130,0.0248,-0.2118,0.9999,-0.0193,0.0166,0.0183,0.0079,0.0076,-0.0011,0.6078,29.4059,-38.5628,
1.7330,0.0248,-0.2118,0.9999,-0.0193,0.0166,0.0183,-0.0116,-0.0000,0.0011,0.6078,29.4059,-38.5628,
1.7330,0.0278,-0.2146,1.0025,-0.0193,0.0166,0.0183,-0.0116,-0.0000,0.0011,0.6078,29.4059,-38.5628,
1.7340,0.0277,-0.2147,1.0024,-0.0193,0.0166,0.0183,-0.0116,-0.0000,0.0011,0.6078,29.4059,-38.5628,
1.7350,0.0277,-0.2147,1.0024,0.0083,0.0342,0.0109,-0.0116,-0.0000,0.0011,0.6078,29.4059,-38.5628,
1.7710,0.0277,-0.2147,1.0024,0.0083,0.0342,0.0109,0.0067,0.0125,0.0056,0.6078,29.4059,-38.5628,
1.7730,0.0252,-0.2092,1.0010,0.0083,0.0342,0.0109,0.0067,0.0125,0.0056,0.6078,29.4059,-38.5628,
1.7730,0.0252,-0.2092,1.0010,0.0083,0.0342,0.0109,0.0067,0.0125,0.0056,0.6081,29.3930,-38.6056,
1.7750,0.0241,-0.2079,1.0026,0.0083,0.0342,0.0109,0.0067,0.0125,0.0056,0.6081,29.3930,-38.6056,
1.7900,0.0220,-0.2062,1.0051,0.0083,0.0342,0.0109,0.0067,0.0125,0.0056,0.6081,29.3930,-38.6056,
1.7910,0.0220,-0.2062,1.0051,0.0083,0.0342,0.0109,0.0015,0.0052,0.0047,0.6081,29.3930,-38.6056,
1.7910,0.0220,-0.2062,1.0051,0.0049,0.0019,-0.0225,0.0015,0.0052,0.0047,0.6081,29.3930,-38.6056,
1.8440,0.0220,-0.2062,1.0051,0.0049,0.0019,-0.0225,0.0092,0.0064,0.0041,0.6081,29.3930,-38.6056,
1.8440,0.0226,-0.2088,1.0081,0.0049,0.0019,-0.0225,0.0092,0.0064,0.0041,0.6081,29.3930,-38.6056,
1.8450,0.0212,-0.2114,1.0085,0.0049,0.0019,-0.0225,0.0092,0.0064,0.0041,0.6081,29.3930,-38.6056,
1.8500,0.0210,-0.2115,1.0080,0.0049,0.0019,-0.0225,0.0092,0.0064,0.0041,0.6081,29.3930,-38.6056,
1.8510,0.0210,-0.2115,1.0080,0.0049,0.0019,-0.0225,0.0092,0.0064,0.0041,0.6147,29.3651,-38.6280,
1.8680,0.0217,-0.2107,1.0069,0.0049,0.0019,-0.0225,0.0092,0.0064,0.0041,0.6147,29.3651,-38.6280,
1.8680,0.0217,-0.2107,1.0069,0.0049,0.0019,-0.0225,0.0174,0.0055,0.0026,0.6147,29.3651,-38.6280,
1.8690,0.0217,-0.2107,1.0069,-0.0166,0.0467,0.0061,0.0174,0.0055,0.0026,0.6147,29.3651,-38.6280,
1.9100,0.0226,-0.2097,1.0059,-0.0166,0.0467,0.0061,0.0174,0.0055,0.0026,0.6147,29.3651,-38.6280,
1.9110,0.0226,-0.2097,1.0059,-0.0166,0.0467,0.0061,0.0199,0.0067,0.0007,0.6147,29.3651,-38.6280,
1.9120,0.0226,-0.2097,1.0059,-0.0166,0.0467,0.0061,0.0199,0.0067,0.0007,0.6181,29.3235,-38.6292,
1.9130,0.0208,-0.2064,1.0002,-0.0166,0.0467,0.0061,0.0199,0.0067,0.0007,0.6181,29.3235,-38.6292,
1.9260,0.0208,-0.2064,1.0002,-0.0310,0.0033,0.0393,0.0199,0.0067,0.0007,0.6181,29.3235,-38.6292,
1.9270,0.0206,-0.2052,1.0007,-0.0310,0.0033,0.0393,0.0199,0.0067,0.0007,0.6181,29.3235,-38.6292,
1.9700,0.0225,-0.2066,1.0057,-0.0310,0.0033,0.0393,0.0199,0.0067,0.0007,0.6181,29.3235,-38.6292,
1.9710,0.0225,-0.2066,1.0057,-0.0310,0.0033,0.0393,0.0058,-0.0031,-0.0002,0.6181,29.3235,-38.6292,
1.9720,0.0231,-0.2073,1.0057,-0.0310,0.0033,0.0393,0.0058,-0.0031,-0.0002,0.6181,29.3235,-38.6292,
1.9720,0.0231,-0.2073,1.0057,-0.0310,0.0033,0.0393,0.0058,-0.0031,-0.0002,0.5863,29.2935,-38.6288,
2.0050,0.0227,-0.2081,1.0057,-0.0310,0.0033,0.0393,0.0058,-0.0031,-0.0002,0.5863,29.2935,-38.6288,
2.0060,0.0227,-0.2081,1.0057,-0.0310,0.0033,0.0393,0.0159,0.0122,0.0001,0.5863,29.2935,-38.6288,
2.0060,0.0227,-0.2065,1.0071,-0.0310,0.0033,0.0393,0.0159,0.0122,0.0001,0.5863,29.2935,-38.6288,
2.0070,0.0227,-0.2065,1.0071,-0.0264,0.0323,-0.0111,0.0159,0.0122,0.0001,0.5863,29.2935,-38.6288,
2.0470,0.0214,-0.2066,1.0043,-0.0264,0.0323,-0.0111,0.0159,0.0122,0.0001,0.5863,29.2935,-38.6288,
2.0480,0.0215,-0.2060,0.9999,-0.0264,0.0323,-0.0111,0.0159,0.0122,0.0001,0.5863,29.2935,-38.6288,
2.0500,0.0215,-0.2060,0.9999,-0.0264,0.0323,-0.0111,0.0220,0.0201,0.0001,0.5863,29.2935,-38.6288,
2.0510,0.0215,-0.2060,0.9999,-0.0264,0.0323,-0.0111,0.0220,0.0201,0.0001,0.5826,29.2228,-38.6641,
2.0640,0.0215,-0.2060,0.9999,-0.0264,0.0323,-0.0111,0.0113,0.0110,0.0007,0.5826,29.2228,-38.6641,
2.0640,0.0215,-0.2060,0.9999,-0.0004,0.0128,0.0175,0.0113,0.0110,0.0007,0.5826,29.2228,-38.6641,
2.0650,0.0193,-0.2064,0.9993,-0.0004,0.0128,0.0175,0.0113,0.0110,0.0007,0.5826,29.2228,-38.6641,
2.1110,0.0193,-0.2064,0.9993,-0.0004,0.0128,0.0175,0.0113,0.0110,0.0007,0.5633,29.1903,-38.6982,
2.1130,0.0193,-0.2064,0.9993,-0.0004,0.0128,0.0175,0.0119,0.0073,0.0017,0.5633,29.1903,-38.6982,
2.1130,0.0186,-0.2059,1.0032,-0.0004,0.0128,0.0175,0.0119,0.0073,0.0017,0.5633,29.1903,-38.6982,
2.1140,0.0215,-0.2042,1.0163,-0.0004,0.0128,0.0175,0.0119,0.0073,0.0017,0.5633,29.1903,-38.6982,
2.1420,0.0200,-0.2011,1.0098,-0.0004,0.0128,0.0175,0.0119,0.0073,0.0017,0.5633,29.1903,-38.6982,
2.1430,0.0200,-0.2011,1.0098,-0.0154,0.0140,-0.0260,0.0119,0.0073,0.0017,0.5633,29.1903,-38.6982,
2.1440,0.0132,-0.2014,0.9949,-0.0154,0.0140,-0.0260,0.0119,0.0073,0.0017,0.5633,29.1903,-38.6982,
2.1450,0.0132,-0.2014,0.9949,-0.0154,0.0140,-0.0260,0.0034,0.0198,0.0007,0.5633,29.1903,-38.6982,
2.1710,0.0169,-0.2060,0.9889,-0.0154,0.0140,-0.0260,0.0034,0.0198,0.0007,0.5633,29.1903,-38.6982,
2.1720,0.0169,-0.2060,0.9889,-0.0154,0.0140,-0.0260,0.0034,0.0198,0.0007,0.5982,29.1626,-38.7413,
2.1990,0.0169,-0.2060,0.9889,-0.0154,0.0140,-0.0260,-0.0085,-0.0187,0.0029,0.5982,29.1626,-38.7413,
2.2000,0.0250,-0.2108,1.0227,-0.0154,0.0140,-0.0260,-0.0085,-0.0187,0.0029,0.5982,29.1626,-38.7413,
2.2000,0.0259,-0.2090,1.0145,-0.0154,0.0140,-0.0260,-0.0085,-0.0187,0.0029,0.5982,29.1626,-38.7413,
2.2010,0.0259,-0.2090,1.0145,-0.0285,0.0443,0.0195,-0.0085,-0.0187,0.0029,0.5982,29.1626,-38.7413,
2.2440,0.0259,-0.2090,1.0145,-0.0285,0.0443,0.0195,0.0211,0.0015,0.0004,0.5982,29.1626,-38.7413,
2.2450,0.0140,-0.2075,0.9863,-0.0285,0.0443,0.0195,0.0211,0.0015,0.0004,0.5982,29.1626,-38.7413,
2.2450,0.0186,-0.2036,1.0085,-0.0285,0.0443,0.0195,0.0211,0.0015,0.0004,0.5982,29.1626,-38.7413,
2.2500,0.0186,-0.2036,1.0085,-0.0285,0.0443,0.0195,0.0211,0.0015,0.0004,0.6053,29.1028,-38.8194,
2.2780,0.0227,-0.1983,1.0087,-0.0285,0.0443,0.0195,0.0211,0.0015,0.0004,0.6053,29.1028,-38.8194,
2.2790,0.0227,-0.1983,1.0087,-0.0285,0.0443,0.0195,0.0275,0.0003,0.0023,0.6053,29.1028,-38.8194,
2.2790,0.0227,-0.1983,1.0087,-0.0012,-0.0204,0.0079,0.0275,0.0003,0.0023,0.6053,29.1028,-38.8194,
2.2800,0.0180,-0.1933,1.0031,-0.0012,-0.0204,0.0079,0.0275,0.0003,0.0023,0.6053,29.1028,-38.8194,
2.3110,0.0166,-0.1978,1.0078,-0.0012,-0.0204,0.0079,0.0275,0.0003,0.0023,0.6053,29.1028,-38.8194,
2.3120,0.0166,-0.1978,1.0078,-0.0012,-0.0204,0.0079,-0.0104,0.0113,-0.0017,0.6053,29.1028,-38.8194,
2.3120,0.0166,-0.1978,1.0078,-0.0012,-0.0204,0.0079,-0.0104,0.0113,-0.0017,0.6804,28.9886,-38.9369,
2.3360,0.0166,-0.1978,1.0078,-0.0188,0.0552,-0.0095,-0.0104,0.0113,-0.0017,0.6804,28.9886,-38.9369,
2.3370,0.0166,-0.1978,1.0078,-0.0188,0.0552,-0.0095,-0.0003,0.0073,-0.0032,0.6804,28.9886,-38.9369,
2.3380,0.0180,-0.2057,1.0129,-0.0188,0.0552,-0.0095,-0.0003,0.0073,-0.0032,0.6804,28.9886,-38.9369,
2.3380,0.0177,-0.2080,1.0069,-0.0188,0.0552,-0.0095,-0.0003,0.0073,-0.0032,0.6804,28.9886,-38.9369,
2.3700,0.0173,-0.2055,1.0080,-0.0188,0.0552,-0.0095,-0.0003,0.0073,-0.0032,0.6804,28.9886,-38.9369,
2.3710,0.0173,-0.2055,1.0080,-0.0188,0.0552,-0.0095,-0.0003,0.0073,-0.0032,0.7341,28.9495,-38.9460,
2.3780,0.0172,-0.2031,1.0017,-0.0188,0.0552,-0.0095,-0.0003,0.0073,-0.0032,0.7341,28.9495,-38.9460,
2.3790,0.0172,-0.2031,1.0017,-0.0188,0.0552,-0.0095,0.0101,0.0009,-0.0038,0.7341,28.9495,-38.9460,
2.4140,0.0172,-0.2031,1.0017,-0.0188,0.0552,-0.0095,0.0083,-0.0016,-0.0011,0.7341,28.9495,-38.9460,
2.4140,0.0166,-0.2019,1.0014,-0.0188,0.0552,-0.0095,0.0083,-0.0016,-0.0011,0.7341,28.9495,-38.9460,
2.4150,0.0201,-0.2011,1.0064,-0.0188,0.0552,-0.0095,0.0083,-0.0016,-0.0011,0.7341,28.9495,-38.9460,
2.4160,0.0201,-0.2011,1.0064,-0.0276,0.0078,0.0373,0.0083,-0.0016,-0.0011,0.7341,28.9495,-38.9460,
2.4440,0.0199,-0.2000,1.0087,-0.0276,0.0078,0.0373,0.0083,-0.0016,-0.0011,0.7341,28.9495,-38.9460,
2.4500,0.0199,-0.2000,1.0087,-0.0276,0.0078,0.0373,0.0083,-0.0016,-0.0011,0.7434,28.9158,-39.0079,
2.4740,0.0189,-0.1987,1.0112,-0.0276,0.0078,0.0373,0.0083,-0.0016,-0.0011,0.7434,28.9158,-39.0079,
2.4750,0.0180,-0.1978,1.0117,-0.0276,0.0078,0.0373,0.0083,-0.0016,-0.0011,0.7434,28.9158,-39.0079,
2.4760,0.0180,-0.1978,1.0117,-0.0200,0.0149,-0.0142,0.0083,-0.0016,-0.0011,0.7434,28.9158,-39.0079,
2.4780,0.0180,-0.1978,1.0117,-0.0200,0.0149,-0.0142,0.0119,-0.0000,0.0011,0.7434,28.9158,-39.0079,
2.5110,0.0180,-0.1978,1.0117,-0.0200,0.0149,-0.0142,0.0116,0.0079,-0.0008,0.7434,28.9158,-39.0079,
2.5120,0.0165,-0.1970,1.0006,-0.0200,0.0149,-0.0142,0.0116,0.0079,-0.0008,0.7434,28.9158,-39.0079,
2.5120,0.0165,-0.1970,1.0006,-0.0200,0.0149,-0.0142,0.0116,0.0079,-0.0008,0.8265,28.8810,-39.0291,
2.5520,0.0165,-0.1970,1.0006,-0.0082,0.0416,0.0359,0.0116,0.0079,-0.0008,0.8265,28.8810,-39.0291,
2.5530,0.0165,-0.1970,1.0006,-0.0082,0.0416,0.0359,0.0003,0.0018,-0.0017,0.8265,28.8810,-39.0291,
2.5540,0.0154,-0.1992,1.0102,-0.0082,0.0416,0.0359,0.0003,0.0018,-0.0017,0.8265,28.8810,-39.0291,
2.5550,0.0193,-0.2035,1.0082,-0.0082,0.0416,0.0359,0.0003,0.0018,-0.0017,0.8265,28.8810,-39.0291,
2.5560,0.0171,-0.2027,1.0067,-0.0082,0.0416,0.0359,0.0003,0.0018,-0.0017,0.8265,28.8810,-39.0291,
2.5700,0.0171,-0.2027,1.0067,-0.0082,0.0416,0.0359,0.0003,0.0018,-0.0017,0.9219,28.8725,-39.0411,
2.5790,0.0165,-0.1978,1.0024,-0.0082,0.0416,0.0359,0.0003,0.0018,-0.0017,0.9219,28.8725,-39.0411,
2.5800,0.0165,-0.1978,1.0024,-0.0082,0.0416,0.0359,0.0192,0.0119,0.0004,0.9219,28.8725,-39.0411,
2.6130,0.0165,-0.1978,1.0024,-0.0164,0.0079,0.0073,0.0192,0.0119,0.0004,0.9219,28.8725,-39.0411,
2.6140,0.0176,-0.1947,1.0034,-0.0164,0.0079,0.0073,0.0192,0.0119,0.0004,0.9219,28.8725,-39.0411,
2.6150,0.0176,-0.1947,1.0034,-0.0164,0.0079,0.0073,0.0031,0.0052,0.0004,0.9219,28.8725,-39.0411,
2.6150,0.0164,-0.1942,1.0071,-0.0164,0.0079,0.0073,0.0031,0.0052,0.0004,0.9219,28.8725,-39.0411,
2.6470,0.0166,-0.1974,1.0108,-0.0164,0.0079,0.0073,0.0031,0.0052,0.0004,0.9219,28.8725,-39.0411,
2.6500,0.0156,-0.1987,1.0100,-0.0164,0.0079,0.0073,0.0031,0.0052,0.0004,0.9219,28.8725,-39.0411,
2.6510,0.0156,-0.1987,1.0100,-0.0164,0.0079,0.0073,-0.0030,-0.0025,-0.0005,0.9219,28.8725,-39.0411,
2.6510,0.0156,-0.1987,1.0100,-0.0164,0.0079,0.0073,-0.0030,-0.0025,-0.0005,0.9443,28.8164,-39.0490,
2.6880,0.0156,-0.2005,1.0128,-0.0164,0.0079,0.0073,-0.0030,-0.0025,-0.0005,0.9443,28.8164,-39.0490,
2.6890,0.0156,-0.2005,1.0128,-0.0160,0.0530,-0.0087,-0.0030,-0.0025,-0.0005,0.9443,28.8164,-39.0490,
2.6900,0.0164,-0.1994,1.0103,-0.0160,0.0530,-0.0087,-0.0030,-0.0025,-0.0005,0.9443,28.8164,-39.0490,
2.6900,0.0164,-0.1994,1.0103,-0.0160,0.0530,-0.0087,0.0049,-0.0007,0.0014,0.9443,28.8164,-39.0490,
2.7120,0.0154,-0.1994,1.0086,-0.0160,0.0530,-0.0087,0.0049,-0.0007,0.0014,0.9443,28.8164,-39.0490,
2.7130,0.0154,-0.1994,1.0086,-0.0160,0.0530,-0.0087,0.0049,-0.0007,0.0014,0.9199,28.7686,-39.0678,
2.7440,0.0154,-0.1994,1.0086,-0.0160,0.0530,-0.0087,0.0119,0.0048,0.0017,0.9199,28.7686,-39.0678,
2.7450,0.0149,-0.1969,1.0053,-0.0160,0.0530,-0.0087,0.0119,0.0048,0.0017,0.9199,28.7686,-39.0678,
2.7460,0.0149,-0.1969,1.0053,-0.0218,0.0140,0.0438,0.0119,0.0048,0.0017,0.9199,28.7686,-39.0678,
2.7460,0.0138,-0.1969,1.0039,-0.0218,0.0140,0.0438,0.0119,0.0048,0.0017,0.9199,28.7686,-39.0678,
2.7700,0.0138,-0.1969,1.0039,-0.0218,0.0140,0.0438,0.0119,-0.0007,-0.0005,0.9199,28.7686,-39.0678,
2.7710,0.0134,-0.1964,1.0064,-0.0218,0.0140,0.0438,0.0119,-0.0007,-0.0005,0.9199,28.7686,-39.0678,
2.7720,0.0134,-0.1964,1.0064,-0.0218,0.0140,0.0438,0.0119,-0.0007,-0.0005,0.9798,28.7461,-39.0837,
2.8240,0.0158,-0.1965,1.0067,-0.0218,0.0140,0.0438,0.0119,-0.0007,-0.0005,0.9798,28.7461,-39.0837,
2.8250,0.0156,-0.1966,1.0074,-0.0218,0.0140,0.0438,0.0119,-0.0007,-0.0005,0.9798,28.7461,-39.0837,
2.8260,0.0159,-0.1954,1.0109,-0.0218,0.0140,0.0438,0.0119,-0.0007,-0.0005,0.9798,28.7461,-39.0837,
2.8270,0.0159,-0.1954,1.0109,-0.0218,0.0140,0.0438,0.0180,-0.0019,0.0007,0.9798,28.7461,-39.0837,
2.8270,0.0159,-0.1954,1.0109,-0.0321,0.0193,-0.0069,0.0180,-0.0019,0.0007,0.9798,28.7461,-39.0837,
2.8450,0.0153,-0.1938,1.0117,-0.0321,0.0193,-0.0069,0.0180,-0.0019,0.0007,0.9798,28.7461,-39.0837,
2.8450,0.0153,-0.1938,1.0117,-0.0321,0.0193,-0.0069,0.0223,-0.0007,0.0007,0.9798,28.7461,-39.0837,
2.8490,0.0153,-0.1938,1.0117,-0.0321,0.0193,-0.0069,0.0223,-0.0007,0.0007,0.9821,28.7929,-39.0194,
2.8830,0.0153,-0.1938,1.0117,-0.0321,0.0193,-0.0069,0.0183,0.0036,0.0004,0.9821,28.7929,-39.0194,
2.8830,0.0161,-0.1926,1.0086,-0.0321,0.0193,-0.0069,0.0183,0.0036,0.0004,0.9821,28.7929,-39.0194,
2.8840,0.0162,-0.1917,1.0041,-0.0321,0.0193,-0.0069,0.0183,0.0036,0.0004,0.9821,28.7929,-39.0194,
2.8850,0.0162,-0.1917,1.0041,-0.0193,0.0169,0.0090,0.0183,0.0036,0.0004,0.9821,28.7929,-39.0194,
2.9140,0.0143,-0.1937,1.0034,-0.0193,0.0169,0.0090,0.0183,0.0036,0.0004,0.9821,28.7929,-39.0194,
2.9150,0.0143,-0.1937,1.0034,-0.0193,0.0169,0.0090,0.0183,0.0036,0.0004,0.9788,28.7474,-39.0666,
2.9610,0.0134,-0.1944,1.0051,-0.0193,0.0169,0.0090,0.0183,0.0036,0.0004,0.9788,28.7474,-39.0666,
2.9620,0.0134,-0.1944,1.0051,-0.0193,0.0169,0.0090,0.0116,-0.0086,0.0001,0.9788,28.7474,-39.0666,
2.9630,0.0134,-0.1944,1.0051,-0.0160,0.0354,0.0005,0.0116,-0.0086,0.0001,0.9788,28.7474,-39.0666,
2.9630,0.0134,-0.1944,1.0051,-0.0160,0.0354,0.0005,0.0159,-0.0019,-0.0011,0.9788,28.7474,-39.0666,
2.9640,0.0166,-0.1927,1.0079,-0.0160,0.0354,0.0005,0.0159,-0.0019,-0.0011,0.9788,28.7474,-39.0666,
2.9650,0.0178,-0.1905,1.0197,-0.0160,0.0354,0.0005,0.0159,-0.0019,-0.0011,0.9788,28.7474,-39.0666,
2.9710,0.0178,-0.1905,1.0197,-0.0160,0.0354,0.0005,0.0159,-0.0019,-0.0011,0.9678,28.6974,-39.0723,
3.0210,0.0178,-0.1905,1.0197,-0.0146,0.0245,0.0209,0.0159,-0.0019,-0.0011,0.9678,28.6974,-39.0723,
3.0220,0.0178,-0.1905,1.0197,-0.0146,0.0245,0.0209,-0.0052,0.0027,-0.0017,0.9678,28.6974,-39.0723,
3.0240,0.0125,-0.1893,1.0036,-0.0146,0.0245,0.0209,-0.0052,0.0027,-0.0017,0.9678,28.6974,-39.0723,
3.0250,0.0085,-0.1922,0.9831,-0.0146,0.0245,0.0209,-0.0052,0.0027,-0.0017,0.9678,28.6974,-39.0723,
3.0250,0.0150,-0.1978,1.0178,-0.0146,0.0245,0.0209,-0.0052,0.0027,-0.0017,0.9678,28.6974,-39.0723,
3.0440,0.0150,-0.1978,1.0178,-0.0146,0.0245,0.0209,0.0046,-0.0187,0.0023,0.9678,28.6974,-39.0723,
3.0450,0.0221,-0.1992,1.0188,-0.0146,0.0245,0.0209,0.0046,-0.0187,0.0023,0.9678,28.6974,-39.0723,
3.0500,0.0221,-0.1992,1.0188,-0.0146,0.0245,0.0209,0.0046,-0.0187,0.0023,0.9166,28.6652,-39.1075,
3.0990,0.0221,-0.1992,1.0188,-0.0146,0.0245,0.0209,0.0229,-0.0147,0.0011,0.9166,28.6652,-39.1075,
3.0990,0.0172,-0.1964,1.0075,-0.0146,0.0245,0.0209,0.0229,-0.0147,0.0011,0.9166,28.6652,-39.1075,
3.1000,0.0143,-0.1922,1.0036,-0.0146,0.0245,0.0209,0.0229,-0.0147,0.0011,0.9166,28.6652,-39.1075,
3.1000,0.0177,-0.1887,1.0117,-0.0146,0.0245,0.0209,0.0229,-0.0147,0.0011,0.9166,28.6652,-39.1075,
3.1010,0.0177,-0.1887,1.0117,-0.0406,0.0094,-0.0388,0.0229,-0.0147,0.0011,0.9166,28.6652,-39.1075,
3.1100,0.0177,-0.1887,1.0117,-0.0406,0.0094,-0.0388,0.0229,-0.0147,0.0011,0.9067,28.6069,-39.1333,
3.1560,0.0143,-0.1818,0.9995,-0.0406,0.0094,-0.0388,0.0229,-0.0147,0.0011,0.9067,28.6069,-39.1333,
3.1570,0.0143,-0.1818,0.9995,-0.0406,0.0094,-0.0388,0.0364,0.0024,0.0032,0.9067,28.6069,-39.1333,
3.1580,0.0143,-0.1818,0.9995,-0.0406,0.0094,-0.0388,-0.0186,-0.0065,-0.0032,0.9067,28.6069,-39.1333,
3.1580,0.0142,-0.1811,1.0036,-0.0406,0.0094,-0.0388,-0.0186,-0.0065,-0.0032,0.9067,28.6069,-39.1333,
3.1590,0.0165,-0.1882,1.0108,-0.0406,0.0094,-0.0388,-0.0186,-0.0065,-0.0032,0.9067,28.6069,-39.1333,
3.1590,0.0165,-0.1882,1.0108,-0.0052,-0.0029,0.0190,-0.0186,-0.0065,-0.0032,0.9067,28.6069,-39.1333,
3.1700,0.0165,-0.1882,1.0108,-0.0052,-0.0029,0.0190,-0.0186,-0.0065,-0.0032,0.9332,28.5746,-39.1898,
3.1770,0.0161,-0.1942,1.0096,-0.0052,-0.0029,0.0190,-0.0186,-0.0065,-0.0032,0.9332,28.5746,-39.1898,
3.2340,0.0155,-0.1950,1.0096,-0.0052,-0.0029,0.0190,-0.0186,-0.0065,-0.0032,0.9332,28.5746,-39.1898,
3.2350,0.0155,-0.1950,1.0096,-0.0052,-0.0029,0.0190,-0.0009,0.0003,-0.0032,0.9332,28.5746,-39.1898,
3.2360,0.0155,-0.1950,1.0096,-0.0052,-0.0029,0.0190,0.0101,-0.0043,-0.0011,0.9332,28.5746,-39.1898,
3.2360,0.0134,-0.1936,1.0098,-0.0052,-0.0029,0.0190,0.0101,-0.0043,-0.0011,0.9332,28.5746,-39.1898,
3.2370,0.0121,-0.1905,1.0091,-0.0052,-0.0029,0.0190,0.0101,-0.0043,-0.0011,0.9332,28.5746,-39.1898,
3.2370,0.0121,-0.1905,1.0091,-0.0250,0.0746,-0.0212,0.0101,-0.0043,-0.0011,0.9332,28.5746,-39.1898,
3.2500,0.0121,-0.1905,1.0091,-0.0250,0.0746,-0.0212,0.0101,-0.0043,-0.0011,0.9945,28.5217,-39.1886,
3.2920,0.0145,-0.1889,1.0097,-0.0250,0.0746,-0.0212,0.0101,-0.0043,-0.0011,0.9945,28.5217,-39.1886,
3.2940,0.0158,-0.1876,1.0098,-0.0250,0.0746,-0.0212,0.0101,-0.0043,-0.0011,0.9945,28.5217,-39.1886,
3.2940,0.0143,-0.1864,1.0095,-0.0250,0.0746,-0.0212,0.0101,-0.0043,-0.0011,0.9945,28.5217,-39.1886,
3.2950,0.0143,-0.1864,1.0095,-0.0368,-0.0108,0.0167,0.0101,-0.0043,-0.0011,0.9945,28.5217,-39.1886,
3.2950,0.0143,-0.1864,1.0095,-0.0368,-0.0108,0.0167,0.0205,-0.0086,0.0026,0.9945,28.5217,-39.1886,
3.3110,0.0143,-0.1864,1.0095,-0.0368,-0.0108,0.0167,0.0205,-0.0086,0.0026,0.9896,28.4885,-39.1868,
3.3710,0.0159,-0.1850,1.0107,-0.0368,-0.0108,0.0167,0.0205,-0.0086,0.0026,0.9896,28.4885,-39.1868,
3.3720,0.0159,-0.1850,1.0107,-0.0368,-0.0108,0.0167,0.0278,-0.0113,0.0023,0.9896,28.4885,-39.1868,
3.3730,0.0159,-0.1850,1.0107,-0.0368,-0.0108,0.0167,0.0278,-0.0113,0.0023,0.9717,28.4313,-39.2091,
3.3740,0.0159,-0.1850,1.0107,-0.0368,-0.0108,0.0167,0.0180,-0.0074,-0.0017,0.9717,28.4313,-39.2091,
3.3750,0.0159,-0.1837,1.0020,-0.0368,-0.0108,0.0167,0.0180,-0.0074,-0.0017,0.9717,28.4313,-39.2091,
3.3750,0.0144,-0.1840,1.0091,-0.0368,-0.0108,0.0167,0.0180,-0.0074,-0.0017,0.9717,28.4313,-39.2091,
3.3750,0.0159,-0.1880,1.0075,-0.0368,-0.0108,0.0167,0.0180,-0.0074,-0.0017,0.9717,28.4313,-39.2091,
3.3760,0.0159,-0.1880,1.0075,-0.0294,0.0263,0.0149,0.0180,-0.0074,-0.0017,0.9717,28.4313,-39.2091,
3.4300,0.0159,-0.1880,1.0075,-0.0294,0.0263,0.0149,0.0162,-0.0116,-0.0026,0.9717,28.4313,-39.2091,
3.4310,0.0188,-0.1886,1.0104,-0.0294,0.0263,0.0149,0.0162,-0.0116,-0.0026,0.9717,28.4313,-39.2091,
3.4320,0.0205,-0.1866,1.0080,-0.0294,0.0263,0.0149,0.0162,-0.0116,-0.0026,0.9717,28.4313,-39.2091,
3.4320,0.0195,-0.1838,1.0067,-0.0294,0.0263,0.0149,0.0162,-0.0116,-0.0026,0.9717,28.4313,-39.2091,
3.4330,0.0195,-0.1838,1.0067,-0.0294,0.0263,0.0149,0.0336,-0.0049,0.0007,0.9717,28.4313,-39.2091,
3.4330,0.0195,-0.1838,1.0067,-0.0283,0.0329,-0.0154,0.0336,-0.0049,0.0007,0.9717,28.4313,-39.2091,
3.4500,0.0172,-0.1806,1.0074,-0.0283,0.0329,-0.0154,0.0336,-0.0049,0.0007,0.9717,28.4313,-39.2091,
3.4510,0.0172,-0.1806,1.0074,-0.0283,0.0329,-0.0154,0.0336,-0.0049,0.0007,0.9936,28.3841,-39.2287,
3.5070,0.0169,-0.1807,1.0089,-0.0283,0.0329,-0.0154,0.0336,-0.0049,0.0007,0.9936,28.3841,-39.2287,
3.5090,0.0169,-0.1807,1.0089,-0.0283,0.0329,-0.0154,0.0241,-0.0080,0.0026,0.9936,28.3841,-39.2287,
3.5090,0.0169,-0.1807,1.0089,-0.0283,0.0329,-0.0154,0.0186,-0.0089,0.0014,0.9936,28.3841,-39.2287,
3.5100,0.0175,-0.1823,1.0075,-0.0283,0.0329,-0.0154,0.0186,-0.0089,0.0014,0.9936,28.3841,-39.2287,
3.5100,0.0182,-0.1823,1.0111,-0.0283,0.0329,-0.0154,0.0186,-0.0089,0.0014,0.9936,28.3841,-39.2287,
3.5110,0.0182,-0.1823,1.0111,0.0064,0.0078,-0.0057,0.0186,-0.0089,0.0014,0.9936,28.3841,-39.2287,
3.5110,0.0182,-0.1823,1.0111,0.0064,0.0078,-0.0057,0.0186,-0.0089,0.0014,1.0072,28.3379,-39.2560,
3.5660,0.0182,-0.1823,1.0111,0.0064,0.0078,-0.0057,0.0180,-0.0028,0.0007,1.0072,28.3379,-39.2560,
3.5680,0.0187,-0.1849,1.0106,0.0064,0.0078,-0.0057,0.0180,-0.0028,0.0007,1.0072,28.3379,-39.2560,
3.5680,0.0166,-0.1842,1.0076,0.0064,0.0078,-0.0057,0.0180,-0.0028,0.0007,1.0072,28.3379,-39.2560,
3.5680,0.0162,-0.1812,1.0053,0.0064,0.0078,-0.0057,0.0180,-0.0028,0.0007,1.0072,28.3379,-39.2560,
3.5690,0.0162,-0.1812,1.0053,-0.0180,0.0297,0.0014,0.0180,-0.0028,0.0007,1.0072,28.3379,-39.2560,
3.5700,0.0162,-0.1812,1.0053,-0.0180,0.0297,0.0014,0.0180,-0.0028,0.0007,1.0880,28.2635,-39.2930,
3.6450,0.0150,-0.1794,1.0073,-0.0180,0.0297,0.0014,0.0180,-0.0028,0.0007,1.0880,28.2635,-39.2930,
3.6460,0.0137,-0.1778,1.0095,-0.0180,0.0297,0.0014,0.0180,-0.0028,0.0007,1.0880,28.2635,-39.2930,
3.6470,0.0144,-0.1795,1.0114,-0.0180,0.0297,0.0014,0.0180,-0.0028,0.0007,1.0880,28.2635,-39.2930,
3.6470,0.0154,-0.1810,1.0106,-0.0180,0.0297,0.0014,0.0180,-0.0028,0.0007,1.0880,28.2635,-39.2930,
3.6480,0.0154,-0.1810,1.0106,-0.0195,0.0073,-0.0114,0.0180,-0.0028,0.0007,1.0880,28.2635,-39.2930,
3.6490,0.0154,-0.1810,1.0106,-0.0195,0.0073,-0.0114,0.0122,-0.0016,-0.0020,1.0880,28.2635,-39.2930,
3.6490,0.0154,-0.1810,1.0106,-0.0195,0.0073,-0.0114,0.0098,-0.0028,-0.0011,1.0880,28.2635,-39.2930,
3.6500,0.0154,-0.1810,1.0106,-0.0195,0.0073,-0.0114,0.0098,-0.0028,-0.0011,1.0611,28.1905,-39.3403,
3.7030,0.0170,-0.1793,1.0097,-0.0195,0.0073,-0.0114,0.0098,-0.0028,-0.0011,1.0611,28.1905,-39.3403,
3.7040,0.0178,-0.1784,1.0092,-0.0195,0.0073,-0.0114,0.0098,-0.0028,-0.0011,1.0611,28.1905,-39.3403,
3.7040,0.0159,-0.1782,1.0093,-0.0195,0.0073,-0.0114,0.0098,-0.0028,-0.0011,1.0611,28.1905,-39.3403,
3.7050,0.0159,-0.1782,1.0093,-0.0195,0.0073,-0.0114,0.0119,-0.0052,0.0001,1.0611,28.1905,-39.3403,
3.7050,0.0159,-0.1782,1.0093,-0.0195,0.0073,-0.0114,0.0070,-0.0010,-0.0029,1.0611,28.1905,-39.3403,
3.7060,0.0159,-0.1782,1.0093,-0.0421,0.0304,0.0084,0.0070,-0.0010,-0.0029,1.0611,28.1905,-39.3403,
3.7110,0.0159,-0.1782,1.0093,-0.0421,0.0304,0.0084,0.0070,-0.0010,-0.0029,1.0937,28.1349,-39.3631,
3.7440,0.0159,-0.1782,1.0093,-0.0421,0.0304,0.0084,-0.0012,0.0027,-0.0026,1.0937,28.1349,-39.3631,
3.7450,0.0171,-0.1778,1.0085,-0.0421,0.0304,0.0084,-0.0012,0.0027,-0.0026,1.0937,28.1349,-39.3631,
3.7460,0.0184,-0.1773,1.0069,-0.0421,0.0304,0.0084,-0.0012,0.0027,-0.0026,1.0937,28.1349,-39.3631,
3.7700,0.0184,-0.1773,1.0069,-0.0421,0.0304,0.0084,-0.0012,0.0027,-0.0026,1.0641,28.0659,-39.4388,
3.7710,0.0150,-0.1795,1.0067,-0.0421,0.0304,0.0084,-0.0012,0.0027,-0.0026,1.0641,28.0659,-39.4388,
3.7810,0.0136,-0.1794,1.0082,-0.0421,0.0304,0.0084,-0.0012,0.0027,-0.0026,1.0641,28.0659,-39.4388,
3.7810,0.0136,-0.1794,1.0082,-0.0421,0.0304,0.0084,-0.0073,-0.0013,-0.0029,1.0641,28.0659,-39.4388,
3.7820,0.0136,-0.1794,1.0082,-0.0169,0.0317,0.0000,-0.0073,-0.0013,-0.0029,1.0641,28.0659,-39.4388,
3.8390,0.0150,-0.1793,1.0109,-0.0169,0.0317,0.0000,-0.0073,-0.0013,-0.0029,1.0641,28.0659,-39.4388,
3.8400,0.0194,-0.1781,1.0262,-0.0169,0.0317,0.0000,-0.0073,-0.0013,-0.0029,1.0641,28.0659,-39.4388,
3.8410,0.0149,-0.1734,1.0068,-0.0169,0.0317,0.0000,-0.0073,-0.0013,-0.0029,1.0641,28.0659,-39.4388,
3.8420,0.0149,-0.1734,1.0068,-0.0169,0.0317,0.0000,-0.0040,-0.0058,-0.0041,1.0641,28.0659,-39.4388,
3.8430,0.0149,-0.1734,1.0068,-0.0235,0.0320,-0.0141,-0.0040,-0.0058,-0.0041,1.0641,28.0659,-39.4388,
3.8500,0.0149,-0.1734,1.0068,-0.0235,0.0320,-0.0141,-0.0040,-0.0058,-0.0041,1.0517,27.9816,-39.4908,
3.9110,0.0123,-0.1766,0.9951,-0.0235,0.0320,-0.0141,-0.0040,-0.0058,-0.0041,1.0517,27.9816,-39.4908,
3.9120,0.0123,-0.1766,0.9951,-0.0235,0.0320,-0.0141,-0.0195,-0.0031,-0.0057,1.0517,27.9816,-39.4908,
3.9130,0.0123,-0.1766,0.9951,-0.0235,0.0320,-0.0141,-0.0195,-0.0031,-0.0057,1.0239,27.9323,-39.5207,
3.9140,0.0123,-0.1766,0.9951,-0.0235,0.0320,-0.0141,-0.0198,-0.0129,0.0004,1.0239,27.9323,-39.5207,
3.9140,0.0160,-0.1812,1.0059,-0.0235,0.0320,-0.0141,-0.0198,-0.0129,0.0004,1.0239,27.9323,-39.5207,
3.9150,0.0245,-0.1849,1.0263,-0.0235,0.0320,-0.0141,-0.0198,-0.0129,0.0004,1.0239,27.9323,-39.5207,
3.9180,0.0243,-0.1837,1.0172,-0.0235,0.0320,-0.0141,-0.0198,-0.0129,0.0004,1.0239,27.9323,-39.5207,
3.9190,0.0243,-0.1837,1.0172,-0.0246,0.0554,0.0304,-0.0198,-0.0129,0.0004,1.0239,27.9323,-39.5207,
3.9700,0.0159,-0.1818,1.0007,-0.0246,0.0554,0.0304,-0.0198,-0.0129,0.0004,1.0239,27.9323,-39.5207,
3.9720,0.0159,-0.1818,1.0007,-0.0246,0.0554,0.0304,-0.0198,-0.0129,0.0004,0.9958,27.9075,-39.5696,
3.9730,0.0159,-0.1818,1.0007,-0.0246,0.0554,0.0304,0.0095,-0.0135,-0.0002,0.9958,27.9075,-39.5696,
3.9730,0.0192,-0.1787,1.0170,-0.0246,0.0554,0.0304,0.0095,-0.0135,-0.0002,0.9958,27.9075,-39.5696,
3.9760,0.0192,-0.1787,1.0170,-0.0246,0.0554,0.0304,0.0336,-0.0110,0.0023,0.9958,27.9075,-39.5696,
3.9770,0.0192,-0.1787,1.0170,0.0063,-0.0015,0.0342,0.0336,-0.0110,0.0023,0.9958,27.9075,-39.5696,
3.9770,0.0184,-0.1722,1.0060,0.0063,-0.0015,0.0342,0.0336,-0.0110,0.0023,0.9958,27.9075,-39.5696,
4.0470,0.0145,-0.1672,1.0068,0.0063,-0.0015,0.0342,0.0336,-0.0110,0.0023,0.9958,27.9075,-39.5696,
4.0500,0.0145,-0.1672,1.0068,0.0063,-0.0015,0.0342,-0.0171,-0.0025,-0.0017,0.9958,27.9075,-39.5696,
4.0500,0.0180,-0.1732,1.0181,0.0063,-0.0015,0.0342,-0.0171,-0.0025,-0.0017,0.9958,27.9075,-39.5696,
4.0510,0.0172,-0.1803,1.0137,0.0063,-0.0015,0.0342,-0.0171,-0.0025,-0.0017,0.9958,27.9075,-39.5696,
4.0520,0.0172,-0.1803,1.0137,0.0063,-0.0015,0.0342,-0.0171,-0.0025,-0.0017,1.0550,27.8853,-39.5889,
4.0550,0.0172,-0.1803,1.0137,0.0063,-0.0015,0.0342,-0.0046,-0.0013,-0.0032,1.0550,27.8853,-39.5889,
4.0560,0.0172,-0.1803,1.0137,-0.0249,0.0480,-0.0206,-0.0046,-0.0013,-0.0032,1.0550,27.8853,-39.5889,
4.0570,0.0158,-0.1831,1.0112,-0.0249,0.0480,-0.0206,-0.0046,-0.0013,-0.0032,1.0550,27.8853,-39.5889,
4.1120,0.0156,-0.1826,1.0122,-0.0249,0.0480,-0.0206,-0.0046,-0.0013,-0.0032,1.0550,27.8853,-39.5889,
4.1130,0.0156,-0.1826,1.0122,-0.0249,0.0480,-0.0206,0.0058,-0.0046,-0.0017,1.0550,27.8853,-39.5889,
4.1140,0.0144,-0.1801,1.0093,-0.0249,0.0480,-0.0206,0.0058,-0.0046,-0.0017,1.0550,27.8853,-39.5889,
4.1140,0.0144,-0.1801,1.0093,-0.0249,0.0480,-0.0206,0.0058,-0.0046,-0.0017,1.0095,27.8661,-39.6039,
4.1150,0.0159,-0.1760,1.0089,-0.0249,0.0480,-0.0206,0.0058,-0.0046,-0.0017,1.0095,27.8661,-39.6039,
4.1160,0.0159,-0.1760,1.0089,-0.0264,0.0352,0.0381,0.0058,-0.0046,-0.0017,1.0095,27.8661,-39.6039,
4.1710,0.0188,-0.1757,1.0059,-0.0264,0.0352,0.0381,0.0058,-0.0046,-0.0017,1.0095,27.8661,-39.6039,
4.1720,0.0188,-0.1757,1.0059,-0.0264,0.0352,0.0381,0.0116,0.0048,0.0053,1.0095,27.8661,-39.6039,
4.1730,0.0189,-0.1762,1.0109,-0.0264,0.0352,0.0381,0.0116,0.0048,0.0053,1.0095,27.8661,-39.6039,
4.1740,0.0189,-0.1762,1.0109,-0.0264,0.0352,0.0381,0.0116,0.0048,0.0053,1.0600,27.8733,-39.6135,
4.1770,0.0187,-0.1754,1.0137,-0.0264,0.0352,0.0381,0.0116,0.0048,0.0053,1.0600,27.8733,-39.6135,
4.1780,0.0187,-0.1754,1.0137,-0.0264,0.0352,0.0381,0.0067,0.0052,0.0090,1.0600,27.8733,-39.6135,
4.1900,0.0187,-0.1754,1.0137,-0.0304,0.0090,-0.0043,0.0067,0.0052,0.0090,1.0600,27.8733,-39.6135,
4.1910,0.0172,-0.1746,1.0084,-0.0304,0.0090,-0.0043,0.0067,0.0052,0.0090,1.0600,27.8733,-39.6135,
4.2450,0.0150,-0.1756,1.0063,-0.0304,0.0090,-0.0043,0.0067,0.0052,0.0090,1.0600,27.8733,-39.6135,
4.2460,0.0169,-0.1785,1.0139,-0.0304,0.0090,-0.0043,0.0067,0.0052,0.0090,1.0600,27.8733,-39.6135,
4.2470,0.0169,-0.1785,1.0139,-0.0304,0.0090,-0.0043,0.0021,0.0030,0.0035,1.0600,27.8733,-39.6135,
4.2490,0.0189,-0.1806,1.0108,-0.0304,0.0090,-0.0043,0.0021,0.0030,0.0035,1.0600,27.8733,-39.6135,
4.2490,0.0189,-0.1806,1.0108,-0.0304,0.0090,-0.0043,-0.0073,-0.0028,0.0017,1.0600,27.8733,-39.6135,
4.2500,0.0189,-0.1806,1.0108,-0.0025,0.0374,0.0033,-0.0073,-0.0028,0.0017,1.0600,27.8733,-39.6135,
4.2500,0.0189,-0.1806,1.0108,-0.0025,0.0374,0.0033,-0.0073,-0.0028,0.0017,1.0474,27.8443,-39.6084,
4.3110,0.0181,-0.1795,1.0111,-0.0025,0.0374,0.0033,-0.0073,-0.0028,0.0017,1.0474,27.8443,-39.6084,
4.3120,0.0172,-0.1755,1.0079,-0.0025,0.0374,0.0033,-0.0073,-0.0028,0.0017,1.0474,27.8443,-39.6084,
4.3120,0.0149,-0.1738,1.0078,-0.0025,0.0374,0.0033,-0.0073,-0.0028,0.0017,1.0474,27.8443,-39.6084,
4.3130,0.0149,-0.1738,1.0078,-0.0025,0.0374,0.0033,0.0052,-0.0031,0.0017,1.0474,27.8443,-39.6084,
4.3140,0.0149,-0.1738,1.0078,-0.0025,0.0374,0.0033,0.0052,-0.0031,0.0017,1.0509,27.8549,-39.6085,
4.3270,0.0160,-0.1738,1.0115,-0.0025,0.0374,0.0033,0.0052,-0.0031,0.0017,1.0509,27.8549,-39.6085,
4.3280,0.0160,-0.1738,1.0115,-0.0025,0.0374,0.0033,-0.0006,-0.0046,0.0017,1.0509,27.8549,-39.6085,
4.3290,0.0160,-0.1738,1.0115,-0.0140,0.0072,0.0050,-0.0006,-0.0046,0.0017,1.0509,27.8549,-39.6085,
4.3700,0.0165,-0.1737,1.0119,-0.0140,0.0072,0.0050,-0.0006,-0.0046,0.0017,1.0509,27.8549,-39.6085,
4.3710,0.0165,-0.1737,1.0119,-0.0140,0.0072,0.0050,-0.0067,-0.0037,0.0007,1.0509,27.8549,-39.6085,
4.3710,0.0172,-0.1759,1.0131,-0.0140,0.0072,0.0050,-0.0067,-0.0037,0.0007,1.0509,27.8549,-39.6085,
4.3720,0.0172,-0.1759,1.0131,-0.0140,0.0072,0.0050,-0.0067,-0.0037,0.0007,1.0630,27.8667,-39.6341,
4.3860,0.0172,-0.1759,1.0131,-0.0227,0.0380,-0.0070,-0.0067,-0.0037,0.0007,1.0630,27.8667,-39.6341,
4.3870,0.0175,-0.1774,1.0135,-0.0227,0.0380,-0.0070,-0.0067,-0.0037,0.0007,1.0630,27.8667,-39.6341,
4.4450,0.0156,-0.1774,1.0131,-0.0227,0.0380,-0.0070,-0.0067,-0.0037,0.0007,1.0630,27.8667,-39.6341,
4.4460,0.0149,-0.1759,1.0114,-0.0227,0.0380,-0.0070,-0.0067,-0.0037,0.0007,1.0630,27.8667,-39.6341,
4.4460,0.0144,-0.1743,1.0126,-0.0227,0.0380,-0.0070,-0.0067,-0.0037,0.0007,1.0630,27.8667,-39.6341,
4.4470,0.0144,-0.1743,1.0126,-0.0227,0.0380,-0.0070,-0.0052,0.0003,-0.0005,1.0630,27.8667,-39.6341,
4.4470,0.0144,-0.1743,1.0126,-0.0227,0.0380,-0.0070,-0.0040,-0.0019,-0.0023,1.0630,27.8667,-39.6341,
4.4510,0.0144,-0.1743,1.0126,-0.0227,0.0380,-0.0070,-0.0040,-0.0019,-0.0023,1.1038,27.8494,-39.6516,
4.4630,0.0144,-0.1743,1.0126,-0.0146,0.0294,0.0261,-0.0040,-0.0019,-0.0023,1.1038,27.8494,-39.6516,
4.4650,0.0153,-0.1743,1.0096,-0.0146,0.0294,0.0261,-0.0040,-0.0019,-0.0023,1.1038,27.8494,-39.6516,
4.5110,0.0153,-0.1743,1.0096,-0.0146,0.0294,0.0261,-0.0061,-0.0037,-0.0023,1.1038,27.8494,-39.6516,
4.5120,0.0155,-0.1761,1.0106,-0.0146,0.0294,0.0261,-0.0061,-0.0037,-0.0023,1.1038,27.8494,-39.6516,
4.5130,0.0166,-0.1761,1.0086,-0.0146,0.0294,0.0261,-0.0061,-0.0037,-0.0023,1.1038,27.8494,-39.6516,
4.5130,0.0166,-0.1761,1.0086,-0.0146,0.0294,0.0261,-0.0061,-0.0037,-0.0023,1.1224,27.8195,-39.6623,
4.5220,0.0166,-0.1761,1.0086,-0.0333,0.0352,0.0122,-0.0061,-0.0037,-0.0023,1.1224,27.8195,-39.6623,
4.5240,0.0172,-0.1767,1.0096,-0.0333,0.0352,0.0122,-0.0061,-0.0037,-0.0023,1.1224,27.8195,-39.6623,
4.5240,0.0172,-0.1767,1.0096,-0.0333,0.0352,0.0122,-0.0049,-0.0049,-0.0023,1.1224,27.8195,-39.6623,
4.5700,0.0178,-0.1772,1.0120,-0.0333,0.0352,0.0122,-0.0049,-0.0049,-0.0023,1.1224,27.8195,-39.6623,
4.5710,0.0186,-0.1751,1.0106,-0.0333,0.0352,0.0122,-0.0049,-0.0049,-0.0023,1.1224,27.8195,-39.6623,
4.5720,0.0186,-0.1751,1.0106,-0.0333,0.0352,0.0122,-0.0052,-0.0019,-0.0005,1.1224,27.8195,-39.6623,
4.5720,0.0186,-0.1751,1.0106,-0.0333,0.0352,0.0122,-0.0052,-0.0019,-0.0005,1.0946,27.8019,-39.7005,
4.6010,0.0180,-0.1755,1.0120,-0.0333,0.0352,0.0122,-0.0052,-0.0019,-0.0005,1.0946,27.8019,-39.7005,
4.6020,0.0182,-0.1772,1.0107,-0.0333,0.0352,0.0122,-0.0052,-0.0019,-0.0005,1.0946,27.8019,-39.7005,
4.6020,0.0182,-0.1772,1.0107,-0.0333,0.0352,0.0122,-0.0064,-0.0000,-0.0002,1.0946,27.8019,-39.7005,
4.6030,0.0182,-0.1772,1.0107,-0.0158,0.0227,-0.0038,-0.0064,-0.0000,-0.0002,1.0946,27.8019,-39.7005,
4.6440,0.0159,-0.1767,1.0081,-0.0158,0.0227,-0.0038,-0.0064,-0.0000,-0.0002,1.0946,27.8019,-39.7005,
4.6450,0.0128,-0.1763,1.0091,-0.0158,0.0227,-0.0038,-0.0064,-0.0000,-0.0002,1.0946,27.8019,-39.7005,
4.6450,0.0128,-0.1763,1.0091,-0.0158,0.0227,-0.0038,-0.0073,0.0033,-0.0008,1.0946,27.8019,-39.7005,
4.6510,0.0128,-0.1763,1.0091,-0.0158,0.0227,-0.0038,-0.0073,0.0033,-0.0008,1.1134,27.7972,-39.7016,
4.6590,0.0140,-0.1760,1.0091,-0.0158,0.0227,-0.0038,-0.0073,0.0033,-0.0008,1.1134,27.7972,-39.7016,
4.6600,0.0140,-0.1760,1.0091,-0.0015,0.0287,0.0113,-0.0073,0.0033,-0.0008,1.1134,27.7972,-39.7016,
4.7110,0.0188,-0.1745,1.0225,-0.0015,0.0287,0.0113,-0.0073,0.0033,-0.0008,1.1134,27.7972,-39.7016,
4.7120,0.0164,-0.1726,1.0114,-0.0015,0.0287,0.0113,-0.0073,0.0033,-0.0008,1.1134,27.7972,-39.7016,
4.7130,0.0164,-0.1726,1.0114,-0.0015,0.0287,0.0113,-0.0073,0.0033,-0.0008,1.0701,27.7995,-39.7121,
4.7140,0.0164,-0.1726,1.0114,-0.0015,0.0287,0.0113,-0.0052,-0.0010,-0.0008,1.0701,27.7995,-39.7121,
4.7370,0.0164,-0.1726,1.0114,-0.0015,0.0287,0.0113,-0.0153,-0.0007,-0.0023,1.0701,27.7995,-39.7121,
4.7380,0.0118,-0.1749,1.0002,-0.0015,0.0287,0.0113,-0.0153,-0.0007,-0.0023,1.0701,27.7995,-39.7121,
4.7390,0.0137,-0.1794,0.9911,-0.0015,0.0287,0.0113,-0.0153,-0.0007,-0.0023,1.0701,27.7995,-39.7121,
4.7400,0.0137,-0.1794,0.9911,-0.0300,0.0274,0.0012,-0.0153,-0.0007,-0.0023,1.0701,27.7995,-39.7121,
4.7700,0.0206,-0.1827,1.0329,-0.0300,0.0274,0.0012,-0.0153,-0.0007,-0.0023,1.0701,27.7995,-39.7121,
4.7710,0.0206,-0.1827,1.0329,-0.0300,0.0274,0.0012,-0.0260,-0.0007,0.0035,1.0701,27.7995,-39.7121,
4.7710,0.0206,-0.1827,1.0329,-0.0300,0.0274,0.0012,-0.0260,-0.0007,0.0035,1.0188,27.7966,-39.7274,
4.7780,0.0232,-0.1820,1.0238,-0.0300,0.0274,0.0012,-0.0260,-0.0007,0.0035,1.0188,27.7966,-39.7274,
4.7950,0.0232,-0.1820,1.0238,-0.0300,0.0274,0.0012,0.0028,-0.0065,0.0011,1.0188,27.7966,-39.7274,
4.7960,0.0127,-0.1789,1.0006,-0.0300,0.0274,0.0012,0.0028,-0.0065,0.0011,1.0188,27.7966,-39.7274,
4.7970,0.0127,-0.1789,1.0006,-0.0277,0.0451,-0.0475,0.0028,-0.0065,0.0011,1.0188,27.7966,-39.7274,
4.8440,0.0148,-0.1763,1.0178,-0.0277,0.0451,-0.0475,0.0028,-0.0065,0.0011,1.0188,27.7966,-39.7274,
4.8450,0.0172,-0.1718,1.0065,-0.0277,0.0451,-0.0475,0.0028,-0.0065,0.0011,1.0188,27.7966,-39.7274,
4.8460,0.0172,-0.1718,1.0065,-0.0277,0.0451,-0.0475,0.0202,-0.0132,0.0050,1.0188,27.7966,-39.7274,
4.8510,0.0172,-0.1718,1.0065,-0.0277,0.0451,-0.0475,0.0202,-0.0132,0.0050,0.9802,27.7873,-39.7512,
4.8730,0.0144,-0.1671,1.0045,-0.0277,0.0451,-0.0475,0.0202,-0.0132,0.0050,0.9802,27.7873,-39.7512,
4.8740,0.0181,-0.1715,1.0155,-0.0277,0.0451,-0.0475,0.0202,-0.0132,0.0050,0.9802,27.7873,-39.7512,
4.8750,0.0181,-0.1715,1.0155,-0.0028,-0.0118,0.0780,0.0202,-0.0132,0.0050,0.9802,27.7873,-39.7512,
4.8750,0.0181,-0.1715,1.0155,-0.0028,-0.0118,0.0780,-0.0260,-0.0000,-0.0017,0.9802,27.7873,-39.7512,
4.9110,0.0161,-0.1792,1.0146,-0.0028,-0.0118,0.0780,-0.0260,-0.0000,-0.0017,0.9802,27.7873,-39.7512,
4.9120,0.0161,-0.1792,1.0146,-0.0028,-0.0118,0.0780,-0.0260,-0.0000,-0.0017,0.9379,27.7867,-39.7177,
4.9320,0.0161,-0.1792,1.0146,-0.0028,-0.0118,0.0780,-0.0162,0.0036,-0.0041,0.9379,27.7867,-39.7177,
4.9330,0.0159,-0.1822,1.0113,-0.0028,-0.0118,0.0780,-0.0162,0.0036,-0.0041,0.9379,27.7867,-39.7177,
4.9340,0.0127,-0.1814,1.0141,-0.0028,-0.0118,0.0780,-0.0162,0.0036,-0.0041,0.9379,27.7867,-39.7177,
4.9340,0.0127,-0.1814,1.0141,-0.0140,0.0846,0.0037,-0.0162,0.0036,-0.0041,0.9379,27.7867,-39.7177,
4.9710,0.0127,-0.1814,1.0141,-0.0140,0.0846,0.0037,-0.0049,-0.0007,-0.0032,0.9379,27.7867,-39.7177,
4.9720,0.0127,-0.1795,1.0112,-0.0140,0.0846,0.0037,-0.0049,-0.0007,-0.0032,0.9379,27.7867,-39.7177,
4.9730,0.0127,-0.1795,1.0112,-0.0140,0.0846,0.0037,-0.0049,-0.0007,-0.0032,0.8935,27.7880,-39.7092,
4.9770,0.0123,-0.1771,1.0108,-0.0140,0.0846,0.0037,-0.0049,-0.0007,-0.0032,0.8935,27.7880,-39.7092,
5.0100,0.0123,-0.1771,1.0108,-0.0140,0.0846,0.0037,-0.0034,-0.0031,-0.0002,0.8935,27.7880,-39.7092,
5.0110,0.0155,-0.1776,1.0089,-0.0140,0.0846,0.0037,-0.0034,-0.0031,-0.0002,0.8935,27.7880,-39.7092,
5.0120,0.0167,-0.1768,1.0111,-0.0140,0.0846,0.0037,-0.0034,-0.0031,-0.0002,0.8935,27.7880,-39.7092,
5.0120,0.0167,-0.1768,1.0111,-0.0291,-0.0080,0.0259,-0.0034,-0.0031,-0.0002,0.8935,27.7880,-39.7092,
5.0440,0.0177,-0.1767,1.0123,-0.0291,-0.0080,0.0259,-0.0034,-0.0031,-0.0002,0.8935,27.7880,-39.7092,
5.0450,0.0177,-0.1767,1.0123,-0.0291,-0.0080,0.0259,-0.0073,-0.0040,-0.0005,0.8935,27.7880,-39.7092,
5.0500,0.0172,-0.1756,1.0124,-0.0291,-0.0080,0.0259,-0.0073,-0.0040,-0.0005,0.8935,27.7880,-39.7092,
5.0500,0.0172,-0.1756,1.0124,-0.0291,-0.0080,0.0259,-0.0073,-0.0040,-0.0005,0.8651,27.8215,-39.6874,
5.0690,0.0150,-0.1760,1.0093,-0.0291,-0.0080,0.0259,-0.0073,-0.0040,-0.0005,0.8651,27.8215,-39.6874,
5.0700,0.0150,-0.1760,1.0093,-0.0291,-0.0080,0.0259,-0.0061,-0.0019,-0.0026,0.8651,27.8215,-39.6874,
5.0700,0.0150,-0.1760,1.0093,-0.0304,0.0281,-0.0012,-0.0061,-0.0019,-0.0026,0.8651,27.8215,-39.6874,
5.1110,0.0160,-0.1784,1.0129,-0.0304,0.0281,-0.0012,-0.0061,-0.0019,-0.0026,0.8651,27.8215,-39.6874,
5.1130,0.0160,-0.1784,1.0129,-0.0304,0.0281,-0.0012,-0.0125,-0.0046,-0.0017,0.8651,27.8215,-39.6874,
5.1140,0.0176,-0.1804,1.0130,-0.0304,0.0281,-0.0012,-0.0125,-0.0046,-0.0017,0.8651,27.8215,-39.6874,
5.1150,0.0176,-0.1804,1.0130,-0.0304,0.0281,-0.0012,-0.0125,-0.0046,-0.0017,0.8192,27.8215,-39.6522,
5.1470,0.0144,-0.1799,1.0134,-0.0304,0.0281,-0.0012,-0.0125,-0.0046,-0.0017,0.8192,27.8215,-39.6522,
5.1480,0.0150,-0.1766,1.0093,-0.0304,0.0281,-0.0012,-0.0125,-0.0046,-0.0017,0.8192,27.8215,-39.6522,
5.1480,0.0150,-0.1766,1.0093,-0.0304,0.0281,-0.0012,0.0015,-0.0055,0.0017,0.8192,27.8215,-39.6522,
5.1490,0.0150,-0.1766,1.0093,-0.0115,0.0394,0.0094,0.0015,-0.0055,0.0017,0.8192,27.8215,-39.6522,
5.1710,0.0151,-0.1743,1.0075,-0.0115,0.0394,0.0094,0.0015,-0.0055,0.0017,0.8192,27.8215,-39.6522,
5.1720,0.0151,-0.1743,1.0075,-0.0115,0.0394,0.0094,0.0015,-0.0055,0.0017,0.7687,27.8166,-39.6559,
5.2060,0.0145,-0.1754,1.0114,-0.0115,0.0394,0.0094,0.0015,-0.0055,0.0017,0.7687,27.8166,-39.6559,
5.2070,0.0145,-0.1754,1.0114,-0.0115,0.0394,0.0094,-0.0052,-0.0062,0.0014,0.7687,27.8166,-39.6559,
5.2070,0.0160,-0.1762,1.0096,-0.0115,0.0394,0.0094,-0.0052,-0.0062,0.0014,0.7687,27.8166,-39.6559,
5.2080,0.0160,-0.1762,1.0096,-0.0190,0.0116,0.0164,-0.0052,-0.0062,0.0014,0.7687,27.8166,-39.6559,
5.2460,0.0180,-0.1782,1.0108,-0.0190,0.0116,0.0164,-0.0052,-0.0062,0.0014,0.7687,27.8166,-39.6559,
5.2460,0.0173,-0.1812,1.0137,-0.0190,0.0116,0.0164,-0.0052,-0.0062,0.0014,0.7687,27.8166,-39.6559,
5.2470,0.0173,-0.1812,1.0137,-0.0190,0.0116,0.0164,-0.0119,-0.0058,-0.0002,0.7687,27.8166,-39.6559,
5.2500,0.0173,-0.1812,1.0137,-0.0190,0.0116,0.0164,-0.0119,-0.0058,-0.0002,0.7758,27.8133,-39.6426,
5.2840,0.0173,-0.1812,1.0137,-0.0190,0.0116,0.0164,-0.0061,-0.0034,-0.0014,0.7758,27.8133,-39.6426,
5.2850,0.0159,-0.1809,1.0126,-0.0190,0.0116,0.0164,-0.0061,-0.0034,-0.0014,0.7758,27.8133,-39.6426,
5.2850,0.0145,-0.1788,1.0078,-0.0190,0.0116,0.0164,-0.0061,-0.0034,-0.0014,0.7758,27.8133,-39.6426,
5.2860,0.0145,-0.1788,1.0078,-0.0229,0.0464,-0.0073,-0.0061,-0.0034,-0.0014,0.7758,27.8133,-39.6426,
5.3110,0.0145,-0.1788,1.0078,-0.0229,0.0464,-0.0073,-0.0082,-0.0043,-0.0029,0.7758,27.8133,-39.6426,
5.3120,0.0144,-0.1777,1.0096,-0.0229,0.0464,-0.0073,-0.0082,-0.0043,-0.0029,0.7758,27.8133,-39.6426,
5.3130,0.0144,-0.1777,1.0096,-0.0229,0.0464,-0.0073,-0.0082,-0.0043,-0.0029,0.7971,27.8213,-39.6369,
5.3420,0.0144,-0.1777,1.0096,-0.0162,0.0068,0.0098,-0.0082,-0.0043,-0.0029,0.7971,27.8213,-39.6369,
5.3430,0.0150,-0.1784,1.0102,-0.0162,0.0068,0.0098,-0.0082,-0.0043,-0.0029,0.7971,27.8213,-39.6369,
5.3430,0.0139,-0.1793,1.0090,-0.0162,0.0068,0.0098,-0.0082,-0.0043,-0.0029,0.7971,27.8213,-39.6369,
5.3440,0.0139,-0.1793,1.0090,-0.0162,0.0068,0.0098,-0.0098,-0.0040,-0.0011,0.7971,27.8213,-39.6369,
5.3710,0.0156,-0.1783,1.0079,-0.0162,0.0068,0.0098,-0.0098,-0.0040,-0.0011,0.7971,27.8213,-39.6369,
5.3720,0.0156,-0.1783,1.0079,-0.0162,0.0068,0.0098,-0.0098,-0.0040,-0.0011,0.7970,27.8455,-39.6179,
5.4200,0.0170,-0.1787,1.0080,-0.0162,0.0068,0.0098,-0.0098,-0.0040,-0.0011,0.7970,27.8455,-39.6179,
5.4210,0.0170,-0.1787,1.0080,-0.0162,0.0068,0.0098,-0.0067,-0.0058,-0.0008,0.7970,27.8455,-39.6179,
5.4220,0.0170,-0.1787,1.0080,-0.0162,0.0068,0.0098,-0.0040,-0.0028,-0.0020,0.7970,27.8455,-39.6179,
5.4220,0.0172,-0.1785,1.0106,-0.0162,0.0068,0.0098,-0.0040,-0.0028,-0.0020,0.7970,27.8455,-39.6179,
5.4230,0.0169,-0.1773,1.0107,-0.0162,0.0068,0.0098,-0.0040,-0.0028,-0.0020,0.7970,27.8455,-39.6179,
5.4230,0.0169,-0.1773,1.0107,-0.0327,0.0261,-0.0083,-0.0040,-0.0028,-0.0020,0.7970,27.8455,-39.6179,
5.4440,0.0161,-0.1772,1.0082,-0.0327,0.0261,-0.0083,-0.0040,-0.0028,-0.0020,0.7970,27.8455,-39.6179,
5.4490,0.0161,-0.1772,1.0082,-0.0327,0.0261,-0.0083,-0.0040,-0.0028,-0.0020,0.7947,27.8509,-39.6583,
5.4790,0.0161,-0.1772,1.0082,-0.0327,0.0261,-0.0083,-0.0073,-0.0019,-0.0023,0.7947,27.8509,-39.6583,
5.4790,0.0181,-0.1777,1.0103,-0.0327,0.0261,-0.0083,-0.0073,-0.0019,-0.0023,0.7947,27.8509,-39.6583,
5.4800,0.0177,-0.1781,1.0065,-0.0327,0.0261,-0.0083,-0.0073,-0.0019,-0.0023,0.7947,27.8509,-39.6583,
5.4800,0.0177,-0.1781,1.0065,-0.0104,0.0262,-0.0053,-0.0073,-0.0019,-0.0023,0.7947,27.8509,-39.6583,
5.5110,0.0128,-0.1789,1.0084,-0.0104,0.0262,-0.0053,-0.0073,-0.0019,-0.0023,0.7947,27.8509,-39.6583,
5.5120,0.0128,-0.1789,1.0084,-0.0104,0.0262,-0.0053,-0.0119,0.0009,-0.0011,0.7947,27.8509,-39.6583,
5.5130,0.0128,-0.1789,1.0084,-0.0104,0.0262,-0.0053,-0.0119,0.0009,-0.0011,0.7911,27.8601,-39.6172,
5.5570,0.0128,-0.1789,1.0084,-0.0104,0.0262,-0.0053,-0.0079,-0.0013,-0.0017,0.7911,27.8601,-39.6172,
5.5590,0.0127,-0.1796,1.0085,-0.0104,0.0262,-0.0053,-0.0079,-0.0013,-0.0017,0.7911,27.8601,-39.6172,
5.5590,0.0166,-0.1773,1.0113,-0.0104,0.0262,-0.0053,-0.0079,-0.0013,-0.0017,0.7911,27.8601,-39.6172,
5.5600,0.0166,-0.1773,1.0113,-0.0101,0.0342,-0.0142,-0.0079,-0.0013,-0.0017,0.7911,27.8601,-39.6172,
5.5600,0.0182,-0.1770,1.0210,-0.0101,0.0342,-0.0142,-0.0079,-0.0013,-0.0017,0.7911,27.8601,-39.6172,
5.5700,0.0182,-0.1770,1.0210,-0.0101,0.0342,-0.0142,-0.0079,-0.0013,-0.0017,0.7874,27.8577,-39.6258,
5.5770,0.0129,-0.1768,1.0028,-0.0101,0.0342,-0.0142,-0.0079,-0.0013,-0.0017,0.7874,27.8577,-39.6258,
5.5780,0.0129,-0.1768,1.0028,-0.0101,0.0342,-0.0142,-0.0125,-0.0046,-0.0026,0.7874,27.8577,-39.6258,
5.6160,0.0129,-0.1768,1.0028,-0.0254,0.0334,0.0290,-0.0125,-0.0046,-0.0026,0.7874,27.8577,-39.6258,
5.6170,0.0129,-0.1768,1.0028,-0.0254,0.0334,0.0290,-0.0266,-0.0040,0.0007,0.7874,27.8577,-39.6258,
5.6180,0.0100,-0.1803,0.9935,-0.0254,0.0334,0.0290,-0.0266,-0.0040,0.0007,0.7874,27.8577,-39.6258,
5.6180,0.0161,-0.1834,1.0054,-0.0254,0.0334,0.0290,-0.0266,-0.0040,0.0007,0.7874,27.8577,-39.6258,
5.6440,0.0260,-0.1864,1.0326,-0.0254,0.0334,0.0290,-0.0266,-0.0040,0.0007,0.7874,27.8577,-39.6258,
5.6500,0.0260,-0.1864,1.0326,-0.0254,0.0334,0.0290,-0.0266,-0.0040,0.0007,0.7873,27.8756,-39.6133,
5.6940,0.0260,-0.1864,1.0326,-0.0321,0.0146,-0.0377,-0.0266,-0.0040,0.0007,0.7873,27.8756,-39.6133,
5.6950,0.0176,-0.1832,1.0107,-0.0321,0.0146,-0.0377,-0.0266,-0.0040,0.0007,0.7873,27.8756,-39.6133,
5.6960,0.0176,-0.1832,1.0107,-0.0321,0.0146,-0.0377,0.0000,-0.0116,0.0011,0.7873,27.8756,-39.6133,
5.6970,0.0127,-0.1793,1.0002,-0.0321,0.0146,-0.0377,0.0000,-0.0116,0.0011,0.7873,27.8756,-39.6133,
5.6970,0.0172,-0.1766,1.0159,-0.0321,0.0146,-0.0377,0.0000,-0.0116,0.0011,0.7873,27.8756,-39.6133,
5.6980,0.0172,-0.1766,1.0159,-0.0321,0.0146,-0.0377,0.0134,-0.0178,0.0017,0.7873,27.8756,-39.6133,
5.7110,0.0172,-0.1766,1.0159,-0.0321,0.0146,-0.0377,0.0134,-0.0178,0.0017,0.8240,27.8896,-39.6245,
5.7430,0.0149,-0.1713,1.0019,-0.0321,0.0146,-0.0377,0.0134,-0.0178,0.0017,0.8240,27.8896,-39.6245,
5.7440,0.0149,-0.1713,1.0019,-0.0321,0.0146,-0.0377,-0.0122,-0.0010,-0.0005,0.8240,27.8896,-39.6245,
5.7450,0.0166,-0.1712,1.0086,-0.0321,0.0146,-0.0377,-0.0122,-0.0010,-0.0005,0.8240,27.8896,-39.6245,
5.7520,0.0177,-0.1795,1.0141,-0.0321,0.0146,-0.0377,-0.0122,-0.0010,-0.0005,0.8240,27.8896,-39.6245,
5.7530,0.0177,-0.1795,1.0141,-0.0097,0.0103,0.0229,-0.0122,-0.0010,-0.0005,0.8240,27.8896,-39.6245,
5.7710,0.0177,-0.1795,1.0141,-0.0097,0.0103,0.0229,-0.0122,-0.0010,-0.0005,0.8114,27.8939,-39.6340,
5.7770,0.0177,-0.1795,1.0141,-0.0097,0.0103,0.0229,-0.0147,0.0012,-0.0029,0.8114,27.8939,-39.6340,
5.7780,0.0164,-0.1848,1.0073,-0.0097,0.0103,0.0229,-0.0147,0.0012,-0.0029,0.8114,27.8939,-39.6340,
5.8310,0.0164,-0.1848,1.0073,-0.0097,0.0103,0.0229,-0.0027,-0.0043,-0.0038,0.8114,27.8939,-39.6340,
5.8330,0.0154,-0.1856,1.0124,-0.0097,0.0103,0.0229,-0.0027,-0.0043,-0.0038,0.8114,27.8939,-39.6340,
5.8330,0.0150,-0.1829,1.0101,-0.0097,0.0103,0.0229,-0.0027,-0.0043,-0.0038,0.8114,27.8939,-39.6340,
5.8340,0.0134,-0.1792,1.0081,-0.0097,0.0103,0.0229,-0.0027,-0.0043,-0.0038,0.8114,27.8939,-39.6340,
5.8340,0.0134,-0.1792,1.0081,-0.0193,0.0638,-0.0123,-0.0027,-0.0043,-0.0038,0.8114,27.8939,-39.6340,
5.8500,0.0134,-0.1792,1.0081,-0.0193,0.0638,-0.0123,0.0034,-0.0046,-0.0005,0.8114,27.8939,-39.6340,
5.8510,0.0149,-0.1779,1.0081,-0.0193,0.0638,-0.0123,0.0034,-0.0046,-0.0005,0.8114,27.8939,-39.6340,
5.8520,0.0149,-0.1779,1.0081,-0.0193,0.0638,-0.0123,0.0034,-0.0046,-0.0005,0.7650,27.8991,-39.6397,
5.8880,0.0164,-0.1785,1.0098,-0.0193,0.0638,-0.0123,0.0034,-0.0046,-0.0005,0.7650,27.8991,-39.6397,
5.8890,0.0164,-0.1785,1.0098,-0.0193,0.0638,-0.0123,-0.0043,-0.0077,-0.0008,0.7650,27.8991,-39.6397,
5.8900,0.0176,-0.1788,1.0097,-0.0193,0.0638,-0.0123,-0.0043,-0.0077,-0.0008,0.7650,27.8991,-39.6397,
5.8910,0.0176,-0.1788,1.0097,-0.0335,-0.0074,0.0044,-0.0043,-0.0077,-0.0008,0.7650,27.8991,-39.6397,
5.9110,0.0181,-0.1779,1.0103,-0.0335,-0.0074,0.0044,-0.0043,-0.0077,-0.0008,0.7650,27.8991,-39.6397,
5.9120,0.0181,-0.1779,1.0103,-0.0335,-0.0074,0.0044,-0.0043,-0.0077,-0.0008,0.7956,27.9037,-39.6280,
5.9670,0.0177,-0.1782,1.0089,-0.0335,-0.0074,0.0044,-0.0043,-0.0077,-0.0008,0.7956,27.9037,-39.6280,
5.9680,0.0159,-0.1782,1.0086,-0.0335,-0.0074,0.0044,-0.0043,-0.0077,-0.0008,0.7956,27.9037,-39.6280,
5.9680,0.0186,-0.1815,1.0096,-0.0335,-0.0074,0.0044,-0.0043,-0.0077,-0.0008,0.7956,27.9037,-39.6280,
5.9690,0.0186,-0.1815,1.0096,-0.0335,-0.0074,0.0044,-0.0055,-0.0068,-0.0029,0.7956,27.9037,-39.6280,
5.9690,0.0186,-0.1815,1.0096,-0.0335,-0.0074,0.0044,-0.0131,-0.0058,-0.0026,0.7956,27.9037,-39.6280,
5.9700,0.0186,-0.1815,1.0096,-0.0196,0.0353,-0.0003,-0.0131,-0.0058,-0.0026,0.7956,27.9037,-39.6280,
5.9700,0.0186,-0.1815,1.0096,-0.0196,0.0353,-0.0003,-0.0131,-0.0058,-0.0026,0.8687,27.9208,-39.5868,
6.0260,0.0186,-0.1815,1.0096,-0.0137,0.0314,0.0015,-0.0131,-0.0058,-0.0026,0.8687,27.9208,-39.5868,
6.0280,0.0180,-0.1823,1.0137,-0.0137,0.0314,0.0015,-0.0131,-0.0058,-0.0026,0.8687,27.9208,-39.5868,
6.0280,0.0180,-0.1823,1.0137,-0.0137,0.0314,0.0015,-0.0012,-0.0052,0.0004,0.8687,27.9208,-39.5868,
6.0290,0.0171,-0.1807,1.0086,-0.0137,0.0314,0.0015,-0.0012,-0.0052,0.0004,0.8687,27.9208,-39.5868,
6.0290,0.0171,-0.1774,1.0080,-0.0137,0.0314,0.0015,-0.0012,-0.0052,0.0004,0.8687,27.9208,-39.5868,
6.0450,0.0166,-0.1757,1.0087,-0.0137,0.0314,0.0015,-0.0012,-0.0052,0.0004,0.8687,27.9208,-39.5868,
6.0460,0.0166,-0.1757,1.0087,-0.0137,0.0314,0.0015,-0.0067,-0.0065,0.0004,0.8687,27.9208,-39.5868,
6.0500,0.0166,-0.1757,1.0087,-0.0137,0.0314,0.0015,-0.0067,-0.0065,0.0004,0.8946,27.9325,-39.6178,
6.1030,0.0172,-0.1777,1.0107,-0.0137,0.0314,0.0015,-0.0067,-0.0065,0.0004,0.8946,27.9325,-39.6178,
6.1040,0.0172,-0.1777,1.0107,-0.0137,0.0314,0.0015,-0.0116,-0.0071,0.0007,0.8946,27.9325,-39.6178,
6.1050,0.0189,-0.1798,1.0126,-0.0137,0.0314,0.0015,-0.0116,-0.0071,0.0007,0.8946,27.9325,-39.6178,
6.1060,0.0187,-0.1818,1.0107,-0.0137,0.0314,0.0015,-0.0116,-0.0071,0.0007,0.8946,27.9325,-39.6178,
6.1060,0.0187,-0.1818,1.0107,-0.0163,0.0258,0.0073,-0.0116,-0.0071,0.0007,0.8946,27.9325,-39.6178,
6.1110,0.0187,-0.1818,1.0107,-0.0163,0.0258,0.0073,-0.0116,-0.0071,0.0007,0.9207,27.9304,-39.5937,
6.1620,0.0181,-0.1822,1.0108,-0.0163,0.0258,0.0073,-0.0116,-0.0071,0.0007,0.9207,27.9304,-39.5937,
6.1630,0.0181,-0.1822,1.0108,-0.0163,0.0258,0.0073,-0.0043,-0.0046,-0.0008,0.9207,27.9304,-39.5937,
6.1630,0.0181,-0.1822,1.0108,-0.0163,0.0258,0.0073,-0.0052,-0.0062,-0.0017,0.9207,27.9304,-39.5937,
6.1640,0.0164,-0.1801,1.0096,-0.0163,0.0258,0.0073,-0.0052,-0.0062,-0.0017,0.9207,27.9304,-39.5937,
6.1640,0.0156,-0.1783,1.0067,-0.0163,0.0258,0.0073,-0.0052,-0.0062,-0.0017,0.9207,27.9304,-39.5937,
6.1650,0.0156,-0.1783,1.0067,-0.0125,0.0314,0.0159,-0.0052,-0.0062,-0.0017,0.9207,27.9304,-39.5937,
6.1700,0.0156,-0.1783,1.0067,-0.0125,0.0314,0.0159,-0.0052,-0.0062,-0.0017,0.9644,27.9357,-39.5963,
6.2420,0.0156,-0.1783,1.0067,-0.0125,0.0314,0.0159,-0.0153,-0.0068,-0.0002,0.9644,27.9357,-39.5963,
6.2440,0.0148,-0.1785,1.0057,-0.0125,0.0314,0.0159,-0.0153,-0.0068,-0.0002,0.9644,27.9357,-39.5963,
6.2450,0.0162,-0.1796,1.0089,-0.0125,0.0314,0.0159,-0.0153,-0.0068,-0.0002,0.9644,27.9357,-39.5963,
6.2460,0.0171,-0.1809,1.0115,-0.0125,0.0314,0.0159,-0.0153,-0.0068,-0.0002,0.9644,27.9357,-39.5963,
6.2470,0.0160,-0.1816,1.0089,-0.0125,0.0314,0.0159,-0.0153,-0.0068,-0.0002,0.9644,27.9357,-39.5963,
6.2480,0.0160,-0.1816,1.0089,-0.0125,0.0314,0.0159,-0.0140,-0.0092,-0.0005,0.9644,27.9357,-39.5963,
6.2480,0.0160,-0.1816,1.0089,-0.0288,0.0267,-0.0067,-0.0140,-0.0092,-0.0005,0.9644,27.9357,-39.5963,
6.2520,0.0160,-0.1816,1.0089,-0.0288,0.0267,-0.0067,-0.0140,-0.0092,-0.0005,0.9873,27.9680,-39.5819,
6.3010,0.0181,-0.1818,1.0124,-0.0288,0.0267,-0.0067,-0.0140,-0.0092,-0.0005,0.9873,27.9680,-39.5819,
6.3030,0.0181,-0.1818,1.0124,-0.0288,0.0267,-0.0067,-0.0104,-0.0098,-0.0008,0.9873,27.9680,-39.5819,
6.3030,0.0187,-0.1810,1.0109,-0.0288,0.0267,-0.0067,-0.0104,-0.0098,-0.0008,0.9873,27.9680,-39.5819,
6.3040,0.0192,-0.1806,1.0118,-0.0288,0.0267,-0.0067,-0.0104,-0.0098,-0.0008,0.9873,27.9680,-39.5819,
6.3050,0.0192,-0.1806,1.0118,-0.0328,0.0273,0.0033,-0.0104,-0.0098,-0.0008,0.9873,27.9680,-39.5819,
6.3120,0.0192,-0.1806,1.0118,-0.0328,0.0273,0.0033,-0.0104,-0.0098,-0.0008,0.9661,27.9616,-39.5589,
6.3740,0.0192,-0.1811,1.0097,-0.0328,0.0273,0.0033,-0.0104,-0.0098,-0.0008,0.9661,27.9616,-39.5589,
6.3750,0.0192,-0.1811,1.0097,-0.0328,0.0273,0.0033,-0.0104,-0.0098,-0.0008,0.9752,27.9751,-39.5462,
6.3780,0.0209,-0.1823,1.0081,-0.0328,0.0273,0.0033,-0.0104,-0.0098,-0.0008,0.9752,27.9751,-39.5462,
6.3790,0.0176,-0.1809,1.0095,-0.0328,0.0273,0.0033,-0.0104,-0.0098,-0.0008,0.9752,27.9751,-39.5462,
6.3790,0.0176,-0.1809,1.0095,-0.0328,0.0273,0.0033,-0.0085,-0.0074,-0.0008,0.9752,27.9751,-39.5462,
6.3800,0.0176,-0.1809,1.0095,-0.0328,0.0273,0.0033,-0.0049,-0.0062,0.0007,0.9752,27.9751,-39.5462,
6.3800,0.0155,-0.1804,1.0108,-0.0328,0.0273,0.0033,-0.0049,-0.0062,0.0007,0.9752,27.9751,-39.5462,
6.3810,0.0155,-0.1804,1.0108,-0.0125,0.0240,0.0234,-0.0049,-0.0062,0.0007,0.9752,27.9751,-39.5462,
6.4360,0.0182,-0.1784,1.0109,-0.0125,0.0240,0.0234,-0.0049,-0.0062,0.0007,0.9752,27.9751,-39.5462,
6.4370,0.0182,-0.1784,1.0109,-0.0125,0.0240,0.0234,0.0000,-0.0022,0.0017,0.9752,27.9751,-39.5462,
6.4380,0.0182,-0.1784,1.0109,-0.0169,0.0207,0.0025,0.0000,-0.0022,0.0017,0.9752,27.9751,-39.5462,
6.4380,0.0182,-0.1784,1.0109,-0.0169,0.0207,0.0025,-0.0079,-0.0071,0.0007,0.9752,27.9751,-39.5462,
6.4390,0.0189,-0.1760,1.0230,-0.0169,0.0207,0.0025,-0.0079,-0.0071,0.0007,0.9752,27.9751,-39.5462,
6.4390,0.0159,-0.1770,1.0093,-0.0169,0.0207,0.0025,-0.0079,-0.0071,0.0007,0.9752,27.9751,-39.5462,
6.4500,0.0159,-0.1770,1.0093,-0.0169,0.0207,0.0025,-0.0079,-0.0071,0.0007,0.9758,27.9684,-39.5323,
6.5100,0.0109,-0.1798,0.9926,-0.0169,0.0207,0.0025,-0.0079,-0.0071,0.0007,0.9758,27.9684,-39.5323,
6.5110,0.0184,-0.1834,1.0056,-0.0169,0.0207,0.0025,-0.0079,-0.0071,0.0007,0.9758,27.9684,-39.5323,
6.5120,0.0272,-0.1865,1.0343,-0.0169,0.0207,0.0025,-0.0079,-0.0071,0.0007,0.9758,27.9684,-39.5323,
6.5130,0.0272,-0.1865,1.0343,-0.0169,0.0207,0.0025,-0.0244,-0.0065,0.0041,0.9758,27.9684,-39.5323,
6.5130,0.0272,-0.1865,1.0343,-0.0169,0.0207,0.0025,-0.0244,-0.0065,0.0041,0.9531,27.9557,-39.5474,
6.5140,0.0272,-0.1865,1.0343,-0.0169,0.0207,0.0025,0.0018,-0.0138,0.0004,0.9531,27.9557,-39.5474,
6.5140,0.0205,-0.1832,1.0078,-0.0169,0.0207,0.0025,0.0018,-0.0138,0.0004,0.9531,27.9557,-39.5474,
6.5150,0.0205,-0.1832,1.0078,-0.0332,0.0600,0.0345,0.0018,-0.0138,0.0004,0.9531,27.9557,-39.5474,
6.5730,0.0205,-0.1832,1.0078,-0.0332,0.0600,0.0345,0.0018,-0.0138,0.0004,0.9327,27.9502,-39.5242,
6.5750,0.0205,-0.1832,1.0078,-0.0332,0.0600,0.0345,0.0095,-0.0104,-0.0005,0.9327,27.9502,-39.5242,
6.5760,0.0154,-0.1793,1.0007,-0.0332,0.0600,0.0345,0.0095,-0.0104,-0.0005,0.9327,27.9502,-39.5242,
6.5760,0.0200,-0.1792,1.0161,-0.0332,0.0600,0.0345,0.0095,-0.0104,-0.0005,0.9327,27.9502,-39.5242,
6.5770,0.0200,-0.1792,1.0161,-0.0031,-0.0009,0.0137,0.0095,-0.0104,-0.0005,0.9327,27.9502,-39.5242,
6.5770,0.0187,-0.1759,1.0037,-0.0031,-0.0009,0.0137,0.0095,-0.0104,-0.0005,0.9327,27.9502,-39.5242,
6.6440,0.0183,-0.1762,1.0092,-0.0031,-0.0009,0.0137,0.0095,-0.0104,-0.0005,0.9327,27.9502,-39.5242,
6.6450,0.0193,-0.1842,1.0123,-0.0031,-0.0009,0.0137,0.0095,-0.0104,-0.0005,0.9327,27.9502,-39.5242,
6.6460,0.0188,-0.1891,1.0111,-0.0031,-0.0009,0.0137,0.0095,-0.0104,-0.0005,0.9327,27.9502,-39.5242,
6.6470,0.0188,-0.1891,1.0111,-0.0031,-0.0009,0.0137,-0.0211,0.0003,-0.0011,0.9327,27.9502,-39.5242,
6.6480,0.0188,-0.1891,1.0111,-0.0031,-0.0009,0.0137,-0.0217,-0.0031,-0.0014,0.9327,27.9502,-39.5242,
6.6500,0.0188,-0.1891,1.0111,-0.0265,0.0617,-0.0216,-0.0217,-0.0031,-0.0014,0.9327,27.9502,-39.5242,
6.6510,0.0183,-0.1881,1.0136,-0.0265,0.0617,-0.0216,-0.0217,-0.0031,-0.0014,0.9327,27.9502,-39.5242,
6.6510,0.0183,-0.1881,1.0136,-0.0265,0.0617,-0.0216,-0.0217,-0.0031,-0.0014,0.9259,27.9649,-39.5514,
6.7120,0.0183,-0.1881,1.0136,-0.0196,-0.0113,0.0279,-0.0217,-0.0031,-0.0014,0.9259,27.9649,-39.5514,
6.7140,0.0183,-0.1881,1.0136,-0.0196,-0.0113,0.0279,-0.0049,-0.0080,-0.0026,0.9259,27.9649,-39.5514,
6.7150,0.0180,-0.1840,1.0113,-0.0196,-0.0113,0.0279,-0.0049,-0.0080,-0.0026,0.9259,27.9649,-39.5514,
6.7150,0.0162,-0.1815,1.0057,-0.0196,-0.0113,0.0279,-0.0049,-0.0080,-0.0026,0.9259,27.9649,-39.5514,
6.7160,0.0162,-0.1815,1.0057,-0.0196,-0.0113,0.0279,-0.0064,-0.0037,0.0001,0.9259,27.9649,-39.5514,
6.7160,0.0186,-0.1806,1.0074,-0.0196,-0.0113,0.0279,-0.0064,-0.0037,0.0001,0.9259,27.9649,-39.5514,
6.7170,0.0186,-0.1806,1.0074,-0.0196,-0.0113,0.0279,-0.0064,-0.0037,0.0001,0.9023,27.9804,-39.5464,
6.7450,0.0195,-0.1800,1.0107,-0.0196,-0.0113,0.0279,-0.0064,-0.0037,0.0001,0.9023,27.9804,-39.5464,
6.7710,0.0195,-0.1800,1.0107,-0.0196,-0.0113,0.0279,-0.0122,-0.0074,-0.0002,0.9023,27.9804,-39.5464,
6.7720,0.0195,-0.1800,1.0107,-0.0196,-0.0113,0.0279,-0.0122,-0.0074,-0.0002,0.8636,27.9721,-39.5472,
6.7730,0.0198,-0.1796,1.0147,-0.0196,-0.0113,0.0279,-0.0122,-0.0074,-0.0002,0.8636,27.9721,-39.5472,
6.7730,0.0200,-0.1801,1.0124,-0.0196,-0.0113,0.0279,-0.0122,-0.0074,-0.0002,0.8636,27.9721,-39.5472,
6.7870,0.0200,-0.1801,1.0124,-0.0303,0.0313,-0.0079,-0.0122,-0.0074,-0.0002,0.8636,27.9721,-39.5472,
6.7880,0.0200,-0.1801,1.0124,-0.0303,0.0313,-0.0079,-0.0098,-0.0016,-0.0023,0.8636,27.9721,-39.5472,
6.7890,0.0198,-0.1793,1.0069,-0.0303,0.0313,-0.0079,-0.0098,-0.0016,-0.0023,0.8636,27.9721,-39.5472,
6.8450,0.0180,-0.1812,1.0112,-0.0303,0.0313,-0.0079,-0.0098,-0.0016,-0.0023,0.8636,27.9721,-39.5472,
6.8460,0.0180,-0.1812,1.0112,-0.0303,0.0313,-0.0079,-0.0211,-0.0022,-0.0032,0.8636,27.9721,-39.5472,
6.8470,0.0205,-0.1845,1.0060,-0.0303,0.0313,-0.0079,-0.0211,-0.0022,-0.0032,0.8636,27.9721,-39.5472,
6.8470,0.0201,-0.1856,1.0175,-0.0303,0.0313,-0.0079,-0.0211,-0.0022,-0.0032,0.8636,27.9721,-39.5472,
6.8470,0.0201,-0.1856,1.0175,-0.0090,0.0527,0.0222,-0.0211,-0.0022,-0.0032,0.8636,27.9721,-39.5472,
6.8500,0.0201,-0.1856,1.0175,-0.0090,0.0527,0.0222,-0.0211,-0.0022,-0.0032,0.8325,27.9993,-39.5777,
6.9110,0.0184,-0.1837,1.0107,-0.0090,0.0527,0.0222,-0.0211,-0.0022,-0.0032,0.8325,27.9993,-39.5777,
6.9120,0.0189,-0.1795,1.0060,-0.0090,0.0527,0.0222,-0.0211,-0.0022,-0.0032,0.8325,27.9993,-39.5777,
6.9130,0.0173,-0.1787,1.0084,-0.0090,0.0527,0.0222,-0.0211,-0.0022,-0.0032,0.8325,27.9993,-39.5777,
6.9130,0.0173,-0.1787,1.0084,-0.0090,0.0527,0.0222,-0.0024,-0.0077,-0.0002,0.8325,27.9993,-39.5777,
6.9140,0.0173,-0.1787,1.0084,-0.0090,0.0527,0.0222,-0.0076,-0.0062,0.0017,0.8325,27.9993,-39.5777,
6.9140,0.0173,-0.1787,1.0084,-0.0090,0.0527,0.0222,-0.0076,-0.0062,0.0017,0.8678,28.0009,-39.5833,
6.9250,0.0173,-0.1787,1.0084,-0.0161,0.0154,0.0220,-0.0076,-0.0062,0.0017,0.8678,28.0009,-39.5833,
6.9260,0.0195,-0.1823,1.0124,-0.0161,0.0154,0.0220,-0.0076,-0.0062,0.0017,0.8678,28.0009,-39.5833,
6.9710,0.0201,-0.1836,1.0129,-0.0161,0.0154,0.0220,-0.0076,-0.0062,0.0017,0.8678,28.0009,-39.5833,
6.9730,0.0201,-0.1864,1.0118,-0.0161,0.0154,0.0220,-0.0076,-0.0062,0.0017,0.8678,28.0009,-39.5833,
6.9730,0.0201,-0.1864,1.0118,-0.0161,0.0154,0.0220,-0.0076,-0.0062,0.0017,0.8469,28.0285,-39.5813,
6.9740,0.0201,-0.1864,1.0118,-0.0161,0.0154,0.0220,-0.0137,-0.0058,0.0023,0.8469,28.0285,-39.5813,
6.9810,0.0201,-0.1864,1.0118,-0.0259,0.0496,-0.0017,-0.0137,-0.0058,0.0023,0.8469,28.0285,-39.5813,
6.9830,0.0201,-0.1864,1.0118,-0.0259,0.0496,-0.0017,-0.0101,-0.0046,0.0007,0.8469,28.0285,-39.5813,
6.9830,0.0192,-0.1855,1.0067,-0.0259,0.0496,-0.0017,-0.0101,-0.0046,0.0007,0.8469,28.0285,-39.5813,
7.0470,0.0189,-0.1839,1.0092,-0.0259,0.0496,-0.0017,-0.0101,-0.0046,0.0007,0.8469,28.0285,-39.5813,
7.0490,0.0189,-0.1826,1.0082,-0.0259,0.0496,-0.0017,-0.0101,-0.0046,0.0007,0.8469,28.0285,-39.5813,
7.0500,0.0183,-0.1831,1.0113,-0.0259,0.0496,-0.0017,-0.0101,-0.0046,0.0007,0.8469,28.0285,-39.5813,
7.0510,0.0183,-0.1831,1.0113,-0.0259,0.0496,-0.0017,-0.0159,-0.0071,-0.0014,0.8469,28.0285,-39.5813,
7.0510,0.0183,-0.1831,1.0113,-0.0259,0.0496,-0.0017,-0.0159,-0.0071,-0.0014,0.8240,28.0625,-39.5515,
7.0590,0.0183,-0.1831,1.0113,-0.0259,0.0496,-0.0017,-0.0119,-0.0080,0.0011,0.8240,28.0625,-39.5515,
7.0600,0.0180,-0.1843,1.0108,-0.0259,0.0496,-0.0017,-0.0119,-0.0080,0.0011,0.8240,28.0625,-39.5515,
7.0610,0.0180,-0.1843,1.0108,-0.0162,0.0133,0.0096,-0.0119,-0.0080,0.0011,0.8240,28.0625,-39.5515,
7.1110,0.0180,-0.1843,1.0108,-0.0162,0.0133,0.0096,-0.0082,-0.0086,0.0004,0.8240,28.0625,-39.5515,
7.1130,0.0180,-0.1843,1.0108,-0.0162,0.0133,0.0096,-0.0082,-0.0086,0.0004,0.8471,28.1010,-39.5307,
7.1140,0.0189,-0.1847,1.0084,-0.0162,0.0133,0.0096,-0.0082,-0.0086,0.0004,0.8471,28.1010,-39.5307,
7.1140,0.0208,-0.1850,1.0068,-0.0162,0.0133,0.0096,-0.0082,-0.0086,0.0004,0.8471,28.1010,-39.5307,
7.1180,0.0197,-0.1847,1.0112,-0.0162,0.0133,0.0096,-0.0082,-0.0086,0.0004,0.8471,28.1010,-39.5307,
7.1190,0.0197,-0.1847,1.0112,-0.0301,0.0328,0.0099,-0.0082,-0.0086,0.0004,0.8471,28.1010,-39.5307,
7.1700,0.0199,-0.1832,1.0117,-0.0301,0.0328,0.0099,-0.0082,-0.0086,0.0004,0.8471,28.1010,-39.5307,
7.1710,0.0199,-0.1832,1.0117,-0.0301,0.0328,0.0099,-0.0107,-0.0068,-0.0011,0.8471,28.1010,-39.5307,
7.1720,0.0197,-0.1836,1.0100,-0.0301,0.0328,0.0099,-0.0107,-0.0068,-0.0011,0.8471,28.1010,-39.5307,
7.1720,0.0197,-0.1836,1.0100,-0.0301,0.0328,0.0099,-0.0107,-0.0068,-0.0011,0.8330,28.1256,-39.4692,
7.1770,0.0206,-0.1833,1.0091,-0.0301,0.0328,0.0099,-0.0107,-0.0068,-0.0011,0.8330,28.1256,-39.4692,
7.1780,0.0206,-0.1833,1.0091,-0.0301,0.0328,0.0099,-0.0079,-0.0049,-0.0020,0.8330,28.1256,-39.4692,
7.1960,0.0212,-0.1845,1.0063,-0.0301,0.0328,0.0099,-0.0079,-0.0049,-0.0020,0.8330,28.1256,-39.4692,
7.1970,0.0212,-0.1845,1.0063,-0.0195,0.0247,0.0030,-0.0079,-0.0049,-0.0020,0.8330,28.1256,-39.4692,
7.2440,0.0199,-0.1865,1.0046,-0.0195,0.0247,0.0030,-0.0079,-0.0049,-0.0020,0.8330,28.1256,-39.4692,
7.2460,0.0182,-0.1869,1.0104,-0.0195,0.0247,0.0030,-0.0079,-0.0049,-0.0020,0.8330,28.1256,-39.4692,
7.2460,0.0182,-0.1869,1.0104,-0.0195,0.0247,0.0030,-0.0140,-0.0074,-0.0005,0.8330,28.1256,-39.4692,
7.2510,0.0182,-0.1869,1.0104,-0.0195,0.0247,0.0030,-0.0140,-0.0074,-0.0005,0.8236,28.1351,-39.4605,
7.2550,0.0205,-0.1854,1.0170,-0.0195,0.0247,0.0030,-0.0140,-0.0074,-0.0005,0.8236,28.1351,-39.4605,
7.2550,0.0205,-0.1854,1.0170,-0.0195,0.0247,0.0030,-0.0122,-0.0092,-0.0014,0.8236,28.1351,-39.4605,
7.2560,0.0205,-0.1854,1.0170,-0.0154,0.0362,-0.0008,-0.0122,-0.0092,-0.0014,0.8236,28.1351,-39.4605,
7.3120,0.0214,-0.1829,1.0214,-0.0154,0.0362,-0.0008,-0.0122,-0.0092,-0.0014,0.8236,28.1351,-39.4605,
7.3130,0.0214,-0.1829,1.0214,-0.0154,0.0362,-0.0008,-0.0110,-0.0110,0.0014,0.8236,28.1351,-39.4605,
7.3140,0.0180,-0.1816,1.0079,-0.0154,0.0362,-0.0008,-0.0110,-0.0110,0.0014,0.8236,28.1351,-39.4605,
7.3140,0.0180,-0.1816,1.0079,-0.0154,0.0362,-0.0008,-0.0110,-0.0110,0.0014,0.8232,28.1490,-39.4459,
7.3340,0.0180,-0.1816,1.0079,-0.0154,0.0362,-0.0008,-0.0266,-0.0086,0.0059,0.8232,28.1490,-39.4459,
7.3350,0.0173,-0.1848,0.9953,-0.0154,0.0362,-0.0008,-0.0266,-0.0086,0.0059,0.8232,28.1490,-39.4459,
7.3360,0.0226,-0.1872,1.0054,-0.0154,0.0362,-0.0008,-0.0266,-0.0086,0.0059,0.8232,28.1490,-39.4459,
7.3360,0.0226,-0.1872,1.0054,-0.0238,0.0209,0.0323,-0.0266,-0.0086,0.0059,0.8232,28.1490,-39.4459,
7.3710,0.0297,-0.1895,1.0300,-0.0238,0.0209,0.0323,-0.0266,-0.0086,0.0059,0.8232,28.1490,-39.4459,
7.3720,0.0297,-0.1895,1.0300,-0.0238,0.0209,0.0323,-0.0266,-0.0086,0.0059,0.8528,28.1658,-39.4254,
7.3780,0.0253,-0.1881,1.0074,-0.0238,0.0209,0.0323,-0.0266,-0.0086,0.0059,0.8528,28.1658,-39.4254,
7.3780,0.0253,-0.1881,1.0074,-0.0238,0.0209,0.0323,-0.0079,-0.0089,0.0041,0.8528,28.1658,-39.4254,
7.3920,0.0253,-0.1881,1.0074,-0.0316,0.0443,-0.0302,-0.0079,-0.0089,0.0041,0.8528,28.1658,-39.4254,
7.3940,0.0184,-0.1844,0.9986,-0.0316,0.0443,-0.0302,-0.0079,-0.0089,0.0041,0.8528,28.1658,-39.4254,
7.4440,0.0184,-0.1844,0.9986,-0.0316,0.0443,-0.0302,-0.0061,-0.0016,0.0011,0.8528,28.1658,-39.4254,
7.4450,0.0206,-0.1817,1.0130,-0.0316,0.0443,-0.0302,-0.0061,-0.0016,0.0011,0.8528,28.1658,-39.4254,
7.4460,0.0199,-0.1789,1.0085,-0.0316,0.0443,-0.0302,-0.0061,-0.0016,0.0011,0.8528,28.1658,-39.4254,
7.4510,0.0199,-0.1789,1.0085,-0.0316,0.0443,-0.0302,-0.0061,-0.0016,0.0011,0.8181,28.1970,-39.3934,
7.4520,0.0194,-0.1825,1.0063,-0.0316,0.0443,-0.0302,-0.0061,-0.0016,0.0011,0.8181,28.1970,-39.3934,
7.4530,0.0194,-0.1825,1.0063,-0.0316,0.0443,-0.0302,-0.0336,-0.0003,0.0026,0.8181,28.1970,-39.3934,
7.4700,0.0194,-0.1825,1.0063,0.0099,0.0246,0.0344,-0.0336,-0.0003,0.0026,0.8181,28.1970,-39.3934,
7.4710,0.0210,-0.1906,1.0087,0.0099,0.0246,0.0344,-0.0336,-0.0003,0.0026,0.8181,28.1970,-39.3934,
7.5110,0.0210,-0.1906,1.0087,0.0099,0.0246,0.0344,-0.0318,-0.0046,0.0017,0.8181,28.1970,-39.3934,
7.5120,0.0214,-0.1959,1.0102,0.0099,0.0246,0.0344,-0.0318,-0.0046,0.0017,0.8181,28.1970,-39.3934,
7.5120,0.0217,-0.1952,1.0101,0.0099,0.0246,0.0344,-0.0318,-0.0046,0.0017,0.8181,28.1970,-39.3934,
7.5130,0.0217,-0.1952,1.0101,0.0099,0.0246,0.0344,-0.0318,-0.0046,0.0017,0.8419,28.2322,-39.3646,
7.5280,0.0186,-0.1939,1.0079,0.0099,0.0246,0.0344,-0.0318,-0.0046,0.0017,0.8419,28.2322,-39.3646,
7.5290,0.0186,-0.1939,1.0079,0.0099,0.0246,0.0344,-0.0122,0.0024,-0.0032,0.8419,28.2322,-39.3646,
7.5300,0.0186,-0.1939,1.0079,-0.0247,0.0663,0.0008,-0.0122,0.0024,-0.0032,0.8419,28.2322,-39.3646,
7.5700,0.0186,-0.1939,1.0079,-0.0247,0.0663,0.0008,-0.0024,-0.0000,-0.0017,0.8419,28.2322,-39.3646,
7.5710,0.0167,-0.1914,1.0068,-0.0247,0.0663,0.0008,-0.0024,-0.0000,-0.0017,0.8419,28.2322,-39.3646,
7.5720,0.0181,-0.1906,1.0071,-0.0247,0.0663,0.0008,-0.0024,-0.0000,-0.0017,0.8419,28.2322,-39.3646,
7.5730,0.0181,-0.1906,1.0071,-0.0247,0.0663,0.0008,-0.0024,-0.0000,-0.0017,0.8601,28.2816,-39.3523,
7.6070,0.0191,-0.1883,1.0065,-0.0247,0.0663,0.0008,-0.0024,-0.0000,-0.0017,0.8601,28.2816,-39.3523,
7.6080,0.0191,-0.1883,1.0065,-0.0247,0.0663,0.0008,-0.0040,-0.0086,0.0007,0.8601,28.2816,-39.3523,
7.6080,0.0212,-0.1862,1.0084,-0.0247,0.0663,0.0008,-0.0040,-0.0086,0.0007,0.8601,28.2816,-39.3523,
7.6080,0.0212,-0.1862,1.0084,-0.0234,-0.0298,0.0074,-0.0040,-0.0086,0.0007,0.8601,28.2816,-39.3523,
7.6450,0.0204,-0.1849,1.0102,-0.0234,-0.0298,0.0074,-0.0040,-0.0086,0.0007,0.8601,28.2816,-39.3523,
7.6510,0.0199,-0.1838,1.0035,-0.0234,-0.0298,0.0074,-0.0040,-0.0086,0.0007,0.8601,28.2816,-39.3523,
7.6520,0.0199,-0.1838,1.0035,-0.0234,-0.0298,0.0074,-0.0098,-0.0007,-0.0008,0.8601,28.2816,-39.3523,
7.6520,0.0199,-0.1838,1.0035,-0.0234,-0.0298,0.0074,-0.0098,-0.0007,-0.0008,0.8569,28.3121,-39.3502,
7.6650,0.0199,-0.1838,1.0035,-0.0327,0.0256,-0.0092,-0.0098,-0.0007,-0.0008,0.8569,28.3121,-39.3502,
7.6660,0.0191,-0.1858,1.0065,-0.0327,0.0256,-0.0092,-0.0098,-0.0007,-0.0008,0.8569,28.3121,-39.3502,
7.7110,0.0191,-0.1858,1.0065,-0.0327,0.0256,-0.0092,-0.0305,-0.0034,-0.0023,0.8569,28.3121,-39.3502,
7.7130,0.0226,-0.1915,1.0096,-0.0327,0.0256,-0.0092,-0.0305,-0.0034,-0.0023,0.8569,28.3121,-39.3502,
7.7140,0.0232,-0.1931,1.0142,-0.0327,0.0256,-0.0092,-0.0305,-0.0034,-0.0023,0.8569,28.3121,-39.3502,
7.7150,0.0232,-0.1931,1.0142,-0.0327,0.0256,-0.0092,-0.0305,-0.0034,-0.0023,0.8801,28.3563,-39.3562,
7.7440,0.0232,-0.1931,1.0142,-0.0327,0.0256,-0.0092,-0.0064,0.0018,0.0011,0.8801,28.3563,-39.3562,
7.7450,0.0216,-0.1894,1.0045,-0.0327,0.0256,-0.0092,-0.0064,0.0018,0.0011,0.8801,28.3563,-39.3562,
7.7450,0.0200,-0.1872,1.0060,-0.0327,0.0256,-0.0092,-0.0064,0.0018,0.0011,0.8801,28.3563,-39.3562,
7.7460,0.0200,-0.1872,1.0060,-0.0226,0.0655,-0.0037,-0.0064,0.0018,0.0011,0.8801,28.3563,-39.3562,
7.7700,0.0204,-0.1867,1.0076,-0.0226,0.0655,-0.0037,-0.0064,0.0018,0.0011,0.8801,28.3563,-39.3562,
7.7710,0.0204,-0.1867,1.0076,-0.0226,0.0655,-0.0037,-0.0211,-0.0055,0.0014,0.8801,28.3563,-39.3562,
7.7720,0.0204,-0.1867,1.0076,-0.0226,0.0655,-0.0037,-0.0211,-0.0055,0.0014,0.9103,28.4139,-39.3421,
7.8020,0.0204,-0.1867,1.0076,-0.0226,0.0655,-0.0037,-0.0241,-0.0144,0.0023,0.9103,28.4139,-39.3421,
7.8030,0.0225,-0.1893,1.0141,-0.0226,0.0655,-0.0037,-0.0241,-0.0144,0.0023,0.9103,28.4139,-39.3421,
7.8030,0.0228,-0.1919,1.0064,-0.0226,0.0655,-0.0037,-0.0241,-0.0144,0.0023,0.9103,28.4139,-39.3421,
7.8040,0.0228,-0.1919,1.0064,-0.0031,0.0239,0.0050,-0.0241,-0.0144,0.0023,0.9103,28.4139,-39.3421,
7.8460,0.0228,-0.1919,1.0064,-0.0031,0.0239,0.0050,-0.0241,-0.0113,0.0029,0.9103,28.4139,-39.3421,
7.8470,0.0217,-0.1944,1.0064,-0.0031,0.0239,0.0050,-0.0241,-0.0113,0.0029,0.9103,28.4139,-39.3421,
7.8480,0.0208,-0.1954,1.0073,-0.0031,0.0239,0.0050,-0.0241,-0.0113,0.0029,0.9103,28.4139,-39.3421,
7.8500,0.0208,-0.1954,1.0073,-0.0031,0.0239,0.0050,-0.0241,-0.0113,0.0029,0.8949,28.4300,-39.2771,
7.8810,0.0208,-0.1954,1.0073,-0.0112,0.0399,0.0132,-0.0241,-0.0113,0.0029,0.8949,28.4300,-39.2771,
7.8840,0.0208,-0.1954,1.0073,-0.0112,0.0399,0.0132,-0.0174,-0.0062,0.0020,0.8949,28.4300,-39.2771,
7.8840,0.0205,-0.1934,1.0075,-0.0112,0.0399,0.0132,-0.0174,-0.0062,0.0020,0.8949,28.4300,-39.2771,
7.8850,0.0205,-0.1933,1.0021,-0.0112,0.0399,0.0132,-0.0174,-0.0062,0.0020,0.8949,28.4300,-39.2771,
7.9110,0.0205,-0.1933,1.0021,-0.0112,0.0399,0.0132,-0.0174,-0.0062,0.0020,0.9137,28.4576,-39.2309,
7.9130,0.0187,-0.1934,1.0068,-0.0112,0.0399,0.0132,-0.0174,-0.0062,0.0020,0.9137,28.4576,-39.2309,
7.9400,0.0187,-0.1934,1.0068,-0.0112,0.0399,0.0132,-0.0156,-0.0132,0.0023,0.9137,28.4576,-39.2309,
7.9420,0.0204,-0.1932,1.0078,-0.0112,0.0399,0.0132,-0.0156,-0.0132,0.0023,0.9137,28.4576,-39.2309,
7.9430,0.0210,-0.1926,1.0056,-0.0112,0.0399,0.0132,-0.0156,-0.0132,0.0023,0.9137,28.4576,-39.2309,
7.9430,0.0210,-0.1926,1.0056,-0.0249,0.0091,-0.0119,-0.0156,-0.0132,0.0023,0.9137,28.4576,-39.2309,
7.9730,0.0212,-0.1921,1.0085,-0.0249,0.0091,-0.0119,-0.0156,-0.0132,0.0023,0.9137,28.4576,-39.2309,
7.9750,0.0212,-0.1921,1.0085,-0.0249,0.0091,-0.0119,-0.0101,-0.0095,0.0017,0.9137,28.4576,-39.2309,
7.9750,0.0212,-0.1921,1.0085,-0.0249,0.0091,-0.0119,-0.0101,-0.0095,0.0017,0.9618,28.5016,-39.2284,
7.9790,0.0228,-0.1917,1.0103,-0.0249,0.0091,-0.0119,-0.0101,-0.0095,0.0017,0.9618,28.5016,-39.2284,
8.0170,0.0215,-0.1917,1.0065,-0.0249,0.0091,-0.0119,-0.0101,-0.0095,0.0017,0.9618,28.5016,-39.2284,
8.0180,0.0215,-0.1917,1.0065,-0.0327,0.0258,0.0006,-0.0101,-0.0095,0.0017,0.9618,28.5016,-39.2284,
8.0190,0.0215,-0.1917,1.0065,-0.0327,0.0258,0.0006,-0.0095,-0.0080,-0.0002,0.9618,28.5016,-39.2284,
8.0190,0.0216,-0.1903,1.0031,-0.0327,0.0258,0.0006,-0.0095,-0.0080,-0.0002,0.9618,28.5016,-39.2284,
8.0450,0.0216,-0.1903,1.0031,-0.0327,0.0258,0.0006,-0.0226,-0.0065,0.0007,0.9618,28.5016,-39.2284,
8.0460,0.0209,-0.1936,1.0047,-0.0327,0.0258,0.0006,-0.0226,-0.0065,0.0007,0.9618,28.5016,-39.2284,
8.0500,0.0209,-0.1936,1.0047,-0.0327,0.0258,0.0006,-0.0226,-0.0065,0.0007,0.9238,28.5171,-39.1913,
8.0760,0.0230,-0.1967,1.0063,-0.0327,0.0258,0.0006,-0.0226,-0.0065,0.0007,0.9238,28.5171,-39.1913,
8.0780,0.0231,-0.1985,1.0069,-0.0327,0.0258,0.0006,-0.0226,-0.0065,0.0007,0.9238,28.5171,-39.1913,
8.0780,0.0231,-0.1985,1.0069,-0.0192,0.0465,0.0017,-0.0226,-0.0065,0.0007,0.9238,28.5171,-39.1913,
8.0790,0.0231,-0.1985,1.0069,-0.0192,0.0465,0.0017,-0.0229,-0.0101,0.0020,0.9238,28.5171,-39.1913,
8.1110,0.0208,-0.1963,1.0086,-0.0192,0.0465,0.0017,-0.0229,-0.0101,0.0020,0.9238,28.5171,-39.1913,
8.1130,0.0208,-0.1963,1.0086,-0.0192,0.0465,0.0017,-0.0229,-0.0101,0.0020,0.8992,28.5256,-39.1537,
8.1530,0.0217,-0.1933,1.0108,-0.0192,0.0465,0.0017,-0.0229,-0.0101,0.0020,0.8992,28.5256,-39.1537,
8.1540,0.0217,-0.1933,1.0108,-0.0192,0.0465,0.0017,-0.0095,-0.0013,0.0011,0.8992,28.5256,-39.1537,
8.1540,0.0217,-0.1910,1.0122,-0.0192,0.0465,0.0017,-0.0095,-0.0013,0.0011,0.8992,28.5256,-39.1537,
8.1550,0.0173,-0.1915,0.9968,-0.0192,0.0465,0.0017,-0.0095,-0.0013,0.0011,0.8992,28.5256,-39.1537,
8.1550,0.0173,-0.1915,0.9968,-0.0192,0.0465,0.0017,-0.0211,-0.0022,-0.0011,0.8992,28.5256,-39.1537,
8.1550,0.0173,-0.1915,0.9968,-0.0175,0.0077,-0.0010,-0.0211,-0.0022,-0.0011,0.8992,28.5256,-39.1537,
8.1710,0.0173,-0.1915,0.9968,-0.0175,0.0077,-0.0010,-0.0211,-0.0022,-0.0011,0.8705,28.5603,-39.1265,
8.1780,0.0159,-0.1974,0.9948,-0.0175,0.0077,-0.0010,-0.0211,-0.0022,-0.0011,0.8705,28.5603,-39.1265,
8.2120,0.0159,-0.1974,0.9948,-0.0175,0.0077,-0.0010,-0.0461,-0.0266,0.0020,0.8705,28.5603,-39.1265,
8.2130,0.0159,-0.1974,0.9948,-0.0398,0.0574,0.0066,-0.0461,-0.0266,0.0020,0.8705,28.5603,-39.1265,
8.2140,0.0243,-0.2010,1.0013,-0.0398,0.0574,0.0066,-0.0461,-0.0266,0.0020,0.8705,28.5603,-39.1265,
8.2150,0.0344,-0.2033,1.0267,-0.0398,0.0574,0.0066,-0.0461,-0.0266,0.0020,0.8705,28.5603,-39.1265,
8.2450,0.0266,-0.2009,1.0052,-0.0398,0.0574,0.0066,-0.0461,-0.0266,0.0020,0.8705,28.5603,-39.1265,
8.2460,0.0266,-0.2009,1.0052,-0.0398,0.0574,0.0066,-0.0104,-0.0120,0.0011,0.8705,28.5603,-39.1265,
8.2510,0.0183,-0.1983,0.9930,-0.0398,0.0574,0.0066,-0.0104,-0.0120,0.0011,0.8705,28.5603,-39.1265,
8.2520,0.0183,-0.1983,0.9930,-0.0398,0.0574,0.0066,-0.0104,-0.0120,0.0011,0.7875,28.5803,-39.0696,
8.2890,0.0245,-0.1938,1.0130,-0.0398,0.0574,0.0066,-0.0104,-0.0120,0.0011,0.7875,28.5803,-39.0696,
8.2900,0.0252,-0.1916,1.0085,-0.0398,0.0574,0.0066,-0.0104,-0.0120,0.0011,0.7875,28.5803,-39.0696,
8.2910,0.0252,-0.1916,1.0085,-0.0398,0.0574,0.0066,-0.0095,-0.0123,-0.0002,0.7875,28.5803,-39.0696,
8.2910,0.0252,-0.1916,1.0085,0.0059,-0.0099,0.0231,-0.0095,-0.0123,-0.0002,0.7875,28.5803,-39.0696,
8.3110,0.0252,-0.1916,1.0085,0.0059,-0.0099,0.0231,-0.0095,-0.0123,-0.0002,0.7250,28.6030,-39.0220,
8.3130,0.0252,-0.1916,1.0085,0.0059,-0.0099,0.0231,-0.0229,-0.0019,0.0007,0.7250,28.6030,-39.0220,
8.3130,0.0228,-0.1919,1.0046,0.0059,-0.0099,0.0231,-0.0229,-0.0019,0.0007,0.7250,28.6030,-39.0220,
8.3490,0.0228,-0.1919,1.0046,-0.0276,0.0498,-0.0201,-0.0229,-0.0019,0.0007,0.7250,28.6030,-39.0220,
8.3510,0.0228,-0.1919,1.0046,-0.0276,0.0498,-0.0201,-0.0287,-0.0095,0.0017,0.7250,28.6030,-39.0220,
8.3510,0.0247,-0.1971,1.0106,-0.0276,0.0498,-0.0201,-0.0287,-0.0095,0.0017,0.7250,28.6030,-39.0220,
8.3520,0.0244,-0.2022,1.0103,-0.0276,0.0498,-0.0201,-0.0287,-0.0095,0.0017,0.7250,28.6030,-39.0220,
8.3710,0.0244,-0.2022,1.0103,-0.0276,0.0498,-0.0201,-0.0287,-0.0095,0.0017,0.7357,28.6583,-39.0337,
8.3720,0.0234,-0.2031,1.0073,-0.0276,0.0498,-0.0201,-0.0287,-0.0095,0.0017,0.7357,28.6583,-39.0337,
8.4270,0.0234,-0.2031,1.0073,-0.0175,0.0349,0.0271,-0.0287,-0.0095,0.0017,0.7357,28.6583,-39.0337,
8.4290,0.0225,-0.2011,1.0058,-0.0175,0.0349,0.0271,-0.0287,-0.0095,0.0017,0.7357,28.6583,-39.0337,
8.4290,0.0231,-0.1989,1.0042,-0.0175,0.0349,0.0271,-0.0287,-0.0095,0.0017,0.7357,28.6583,-39.0337,
8.4300,0.0219,-0.2004,1.0056,-0.0175,0.0349,0.0271,-0.0287,-0.0095,0.0017,0.7357,28.6583,-39.0337,
8.4310,0.0219,-0.2004,1.0056,-0.0175,0.0349,0.0271,-0.0171,-0.0046,-0.0011,0.7357,28.6583,-39.0337,
8.4310,0.0219,-0.2004,1.0056,-0.0175,0.0349,0.0271,-0.0180,-0.0025,0.0001,0.7357,28.6583,-39.0337,
8.4510,0.0222,-0.1992,1.0064,-0.0175,0.0349,0.0271,-0.0180,-0.0025,0.0001,0.7357,28.6583,-39.0337,
8.4520,0.0222,-0.1992,1.0064,-0.0175,0.0349,0.0271,-0.0180,-0.0025,0.0001,0.7415,28.7070,-39.0130,
8.4850,0.0215,-0.1976,1.0039,-0.0175,0.0349,0.0271,-0.0180,-0.0025,0.0001,0.7415,28.7070,-39.0130,
8.4850,0.0215,-0.1976,1.0039,-0.0175,0.0349,0.0271,-0.0180,-0.0065,-0.0008,0.7415,28.7070,-39.0130,
8.4860,0.0232,-0.1999,1.0082,-0.0175,0.0349,0.0271,-0.0180,-0.0065,-0.0008,0.7415,28.7070,-39.0130,
8.4860,0.0232,-0.1999,1.0082,-0.0287,0.0198,-0.0003,-0.0180,-0.0065,-0.0008,0.7415,28.7070,-39.0130,
8.5110,0.0237,-0.2000,1.0120,-0.0287,0.0198,-0.0003,-0.0180,-0.0065,-0.0008,0.7415,28.7070,-39.0130,
8.5120,0.0237,-0.2000,1.0120,-0.0287,0.0198,-0.0003,-0.0180,-0.0065,-0.0008,0.6919,28.7380,-38.9739,
8.5130,0.0237,-0.2000,1.0120,-0.0287,0.0198,-0.0003,-0.0247,-0.0110,-0.0035,0.6919,28.7380,-38.9739,
8.5630,0.0220,-0.1991,1.0034,-0.0287,0.0198,-0.0003,-0.0247,-0.0110,-0.0035,0.6919,28.7380,-38.9739,
8.5650,0.0220,-0.1991,1.0034,-0.0287,0.0198,-0.0003,-0.0256,0.0033,-0.0047,0.6919,28.7380,-38.9739,
8.5650,0.0241,-0.2019,1.0035,-0.0287,0.0198,-0.0003,-0.0256,0.0033,-0.0047,0.6919,28.7380,-38.9739,
8.5660,0.0264,-0.2070,1.0107,-0.0287,0.0198,-0.0003,-0.0256,0.0033,-0.0047,0.6919,28.7380,-38.9739,
8.5670,0.0264,-0.2070,1.0107,-0.0307,0.0432,0.0181,-0.0256,0.0033,-0.0047,0.6919,28.7380,-38.9739,
8.5700,0.0264,-0.2070,1.0107,-0.0307,0.0432,0.0181,-0.0256,0.0033,-0.0047,0.7259,28.7840,-38.9540,
8.6220,0.0264,-0.2070,1.0107,-0.0189,0.0266,0.0143,-0.0256,0.0033,-0.0047,0.7259,28.7840,-38.9540,
8.6230,0.0264,-0.2070,1.0107,-0.0189,0.0266,0.0143,-0.0260,-0.0120,-0.0023,0.7259,28.7840,-38.9540,
8.6240,0.0264,-0.2070,1.0107,-0.0189,0.0266,0.0143,-0.0095,0.0079,-0.0023,0.7259,28.7840,-38.9540,
8.6240,0.0280,-0.2065,1.0058,-0.0189,0.0266,0.0143,-0.0095,0.0079,-0.0023,0.7259,28.7840,-38.9540,
8.6250,0.0260,-0.2011,1.0026,-0.0189,0.0266,0.0143,-0.0095,0.0079,-0.0023,0.7259,28.7840,-38.9540,
8.6250,0.0250,-0.1964,0.9993,-0.0189,0.0266,0.0143,-0.0095,0.0079,-0.0023,0.7259,28.7840,-38.9540,
8.6440,0.0221,-0.1989,1.0089,-0.0189,0.0266,0.0143,-0.0095,0.0079,-0.0023,0.7259,28.7840,-38.9540,
8.6510,0.0221,-0.1989,1.0089,-0.0189,0.0266,0.0143,-0.0095,0.0079,-0.0023,0.7109,28.8247,-38.9412,
8.7010,0.0221,-0.1989,1.0089,-0.0045,0.0463,-0.0164,-0.0095,0.0079,-0.0023,0.7109,28.8247,-38.9412,
8.7030,0.0254,-0.2029,1.0123,-0.0045,0.0463,-0.0164,-0.0095,0.0079,-0.0023,0.7109,28.8247,-38.9412,
8.7040,0.0242,-0.2044,1.0065,-0.0045,0.0463,-0.0164,-0.0095,0.0079,-0.0023,0.7109,28.8247,-38.9412,
8.7050,0.0231,-0.2054,1.0058,-0.0045,0.0463,-0.0164,-0.0095,0.0079,-0.0023,0.7109,28.8247,-38.9412,
8.7050,0.0231,-0.2054,1.0058,-0.0045,0.0463,-0.0164,-0.0244,-0.0162,-0.0023,0.7109,28.8247,-38.9412,
8.7060,0.0231,-0.2054,1.0058,-0.0045,0.0463,-0.0164,-0.0131,-0.0028,-0.0035,0.7109,28.8247,-38.9412,
8.7110,0.0231,-0.2054,1.0058,-0.0045,0.0463,-0.0164,-0.0131,-0.0028,-0.0035,0.6961,28.8797,-38.9118,
8.7440,0.0265,-0.2051,1.0053,-0.0045,0.0463,-0.0164,-0.0131,-0.0028,-0.0035,0.6961,28.8797,-38.9118,
8.7460,0.0265,-0.2051,1.0053,-0.0045,0.0463,-0.0164,-0.0198,-0.0068,-0.0035,0.6961,28.8797,-38.9118,
8.7460,0.0248,-0.2049,1.0002,-0.0045,0.0463,-0.0164,-0.0198,-0.0068,-0.0035,0.6961,28.8797,-38.9118,
8.7580,0.0231,-0.2051,1.0039,-0.0045,0.0463,-0.0164,-0.0198,-0.0068,-0.0035,0.6961,28.8797,-38.9118,
8.7600,0.0231,-0.2051,1.0039,-0.0219,0.0265,0.0381,-0.0198,-0.0068,-0.0035,0.6961,28.8797,-38.9118,
8.7710,0.0231,-0.2051,1.0039,-0.0219,0.0265,0.0381,-0.0198,-0.0068,-0.0035,0.7326,28.9238,-38.8880,
8.7780,0.0231,-0.2051,1.0039,-0.0219,0.0265,0.0381,-0.0223,-0.0123,-0.0023,0.7326,28.9238,-38.8880,
8.7790,0.0250,-0.2047,1.0091,-0.0219,0.0265,0.0381,-0.0223,-0.0123,-0.0023,0.7326,28.9238,-38.8880,
8.8360,0.0248,-0.2063,1.0031,-0.0219,0.0265,0.0381,-0.0223,-0.0123,-0.0023,0.7326,28.9238,-38.8880,
8.8370,0.0248,-0.2063,1.0031,-0.0219,0.0265,0.0381,-0.0189,-0.0080,-0.0017,0.7326,28.9238,-38.8880,
8.8380,0.0238,-0.2069,1.0045,-0.0219,0.0265,0.0381,-0.0189,-0.0080,-0.0017,0.7326,28.9238,-38.8880,
8.8380,0.0263,-0.2071,1.0092,-0.0219,0.0265,0.0381,-0.0189,-0.0080,-0.0017,0.7326,28.9238,-38.8880,
8.8390,0.0263,-0.2071,1.0092,-0.0178,0.0238,-0.0042,-0.0189,-0.0080,-0.0017,0.7326,28.9238,-38.8880,
8.8510,0.0263,-0.2071,1.0092,-0.0178,0.0238,-0.0042,-0.0189,-0.0080,-0.0017,0.7169,28.9531,-38.9059,
8.8950,0.0263,-0.2071,1.0092,-0.0178,0.0238,-0.0042,-0.0165,-0.0092,-0.0005,0.7169,28.9531,-38.9059,
8.8960,0.0271,-0.2046,1.0080,-0.0178,0.0238,-0.0042,-0.0165,-0.0092,-0.0005,0.7169,28.9531,-38.9059,
8.8970,0.0271,-0.2046,1.0080,-0.0210,0.0188,0.0144,-0.0165,-0.0092,-0.0005,0.7169,28.9531,-38.9059,
8.8980,0.0260,-0.2033,1.0079,-0.0210,0.0188,0.0144,-0.0165,-0.0092,-0.0005,0.7169,28.9531,-38.9059,
8.8980,0.0254,-0.2030,1.0043,-0.0210,0.0188,0.0144,-0.0165,-0.0092,-0.0005,0.7169,28.9531,-38.9059,
8.8990,0.0254,-0.2030,1.0043,-0.0210,0.0188,0.0144,-0.0156,-0.0071,-0.0005,0.7169,28.9531,-38.9059,
8.9120,0.0254,-0.2030,1.0043,-0.0210,0.0188,0.0144,-0.0156,-0.0071,-0.0005,0.6491,28.9770,-38.8741,
8.9710,0.0274,-0.2042,1.0031,-0.0210,0.0188,0.0144,-0.0156,-0.0071,-0.0005,0.6491,28.9770,-38.8741,
8.9720,0.0274,-0.2042,1.0031,-0.0210,0.0188,0.0144,-0.0156,-0.0071,-0.0005,0.5838,29.0050,-38.8693,
8.9730,0.0274,-0.2065,1.0013,-0.0210,0.0188,0.0144,-0.0156,-0.0071,-0.0005,0.5838,29.0050,-38.8693,
8.9730,0.0265,-0.2075,1.0040,-0.0210,0.0188,0.0144,-0.0156,-0.0071,-0.0005,0.5838,29.0050,-38.8693,
8.9740,0.0265,-0.2075,1.0040,-0.0210,0.0188,0.0144,-0.0269,-0.0089,-0.0002,0.5838,29.0050,-38.8693,
8.9750,0.0265,-0.2075,1.0040,-0.0210,0.0188,0.0144,-0.0226,-0.0098,0.0001,0.5838,29.0050,-38.8693,
8.9750,0.0242,-0.2069,1.0048,-0.0210,0.0188,0.0144,-0.0226,-0.0098,0.0001,0.5838,29.0050,-38.8693,
8.9760,0.0242,-0.2069,1.0048,-0.0110,0.0527,0.0215,-0.0226,-0.0098,0.0001,0.5838,29.0050,-38.8693,
9.0310,0.0261,-0.2058,1.0115,-0.0110,0.0527,0.0215,-0.0226,-0.0098,0.0001,0.5838,29.0050,-38.8693,
9.0320,0.0261,-0.2058,1.0115,-0.0145,0.0363,-0.0103,-0.0226,-0.0098,0.0001,0.5838,29.0050,-38.8693,
9.0330,0.0269,-0.2051,1.0090,-0.0145,0.0363,-0.0103,-0.0226,-0.0098,0.0001,0.5838,29.0050,-38.8693,
9.0330,0.0228,-0.2071,0.9981,-0.0145,0.0363,-0.0103,-0.0226,-0.0098,0.0001,0.5838,29.0050,-38.8693,
9.0340,0.0228,-0.2071,0.9981,-0.0145,0.0363,-0.0103,-0.0263,0.0006,-0.0029,0.5838,29.0050,-38.8693,
9.0500,0.0219,-0.2112,0.9828,-0.0145,0.0363,-0.0103,-0.0263,0.0006,-0.0029,0.5838,29.0050,-38.8693,
9.0520,0.0219,-0.2112,0.9828,-0.0145,0.0363,-0.0103,-0.0263,0.0006,-0.0029,0.5935,29.0652,-38.8625,
9.0520,0.0219,-0.2112,0.9828,-0.0145,0.0363,-0.0103,-0.0415,-0.0068,-0.0014,0.5935,29.0652,-38.8625,
9.1090,0.0287,-0.2163,1.0109,-0.0145,0.0363,-0.0103,-0.0415,-0.0068,-0.0014,0.5935,29.0652,-38.8625,
9.1100,0.0379,-0.2185,1.0235,-0.0145,0.0363,-0.0103,-0.0415,-0.0068,-0.0014,0.5935,29.0652,-38.8625,
9.1110,0.0241,-0.2154,1.0021,-0.0145,0.0363,-0.0103,-0.0415,-0.0068,-0.0014,0.5935,29.0652,-38.8625,
9.1110,0.0241,-0.2154,1.0021,-0.0145,0.0363,-0.0103,-0.0455,-0.0156,0.0026,0.5935,29.0652,-38.8625,
9.1120,0.0241,-0.2154,1.0021,-0.0299,0.0553,0.0020,-0.0455,-0.0156,0.0026,0.5935,29.0652,-38.8625,
9.1130,0.0241,-0.2154,1.0021,-0.0299,0.0553,0.0020,-0.0455,-0.0156,0.0026,0.5589,29.1231,-38.8365,
9.1680,0.0232,-0.2110,0.9942,-0.0299,0.0553,0.0020,-0.0455,-0.0156,0.0026,0.5589,29.1231,-38.8365,
9.1690,0.0241,-0.2069,1.0053,-0.0299,0.0553,0.0020,-0.0455,-0.0156,0.0026,0.5589,29.1231,-38.8365,
9.1690,0.0254,-0.2057,0.9985,-0.0299,0.0553,0.0020,-0.0455,-0.0156,0.0026,0.5589,29.1231,-38.8365,
9.1700,0.0254,-0.2057,0.9985,-0.0299,0.0553,0.0020,-0.0006,0.0039,-0.0017,0.5589,29.1231,-38.8365,
9.1700,0.0254,-0.2057,0.9985,-0.0299,0.0553,0.0020,-0.0186,-0.0062,-0.0023,0.5589,29.1231,-38.8365,
9.1710,0.0254,-0.2057,0.9985,0.0091,-0.0203,0.0365,-0.0186,-0.0062,-0.0023,0.5589,29.1231,-38.8365,
9.1710,0.0254,-0.2057,0.9985,0.0091,-0.0203,0.0365,-0.0186,-0.0062,-0.0023,0.5622,29.1790,-38.8130,
9.2450,0.0265,-0.2097,1.0054,0.0091,-0.0203,0.0365,-0.0186,-0.0062,-0.0023,0.5622,29.1790,-38.8130,
9.2470,0.0269,-0.2165,1.0075,0.0091,-0.0203,0.0365,-0.0186,-0.0062,-0.0023,0.5622,29.1790,-38.8130,
9.2470,0.0266,-0.2184,1.0081,0.0091,-0.0203,0.0365,-0.0186,-0.0062,-0.0023,0.5622,29.1790,-38.8130,
9.2480,0.0272,-0.2160,1.0012,0.0091,-0.0203,0.0365,-0.0186,-0.0062,-0.0023,0.5622,29.1790,-38.8130,
9.2490,0.0272,-0.2160,1.0012,-0.0393,0.0668,-0.0283,-0.0186,-0.0062,-0.0023,0.5622,29.1790,-38.8130,
9.2490,0.0272,-0.2160,1.0012,-0.0393,0.0668,-0.0283,-0.0290,-0.0165,-0.0011,0.5622,29.1790,-38.8130,
9.2500,0.0272,-0.2160,1.0012,-0.0393,0.0668,-0.0283,-0.0076,-0.0028,-0.0020,0.5622,29.1790,-38.8130,
9.2500,0.0272,-0.2160,1.0012,-0.0393,0.0668,-0.0283,-0.0076,-0.0028,-0.0020,0.5907,29.2253,-38.7606,
9.3040,0.0237,-0.2159,1.0026,-0.0393,0.0668,-0.0283,-0.0076,-0.0028,-0.0020,0.5907,29.2253,-38.7606,
9.3050,0.0253,-0.2143,1.0060,-0.0393,0.0668,-0.0283,-0.0076,-0.0028,-0.0020,0.5907,29.2253,-38.7606,
9.3060,0.0239,-0.2143,1.0048,-0.0393,0.0668,-0.0283,-0.0076,-0.0028,-0.0020,0.5907,29.2253,-38.7606,
9.3060,0.0239,-0.2143,1.0048,-0.0393,0.0668,-0.0283,-0.0260,-0.0104,-0.0023,0.5907,29.2253,-38.7606,
9.3070,0.0239,-0.2143,1.0048,-0.0168,-0.0051,0.0280,-0.0260,-0.0104,-0.0023,0.5907,29.2253,-38.7606,
9.3110,0.0239,-0.2143,1.0048,-0.0168,-0.0051,0.0280,-0.0260,-0.0104,-0.0023,0.5966,29.2881,-38.7439,
9.3710,0.0239,-0.2143,1.0048,-0.0168,-0.0051,0.0280,-0.0275,-0.0187,-0.0008,0.5966,29.2881,-38.7439,
9.3720,0.0238,-0.2136,1.0024,-0.0168,-0.0051,0.0280,-0.0275,-0.0187,-0.0008,0.5966,29.2881,-38.7439,
9.3730,0.0307,-0.2136,1.0069,-0.0168,-0.0051,0.0280,-0.0275,-0.0187,-0.0008,0.5966,29.2881,-38.7439,
9.3730,0.0296,-0.2127,1.0050,-0.0168,-0.0051,0.0280,-0.0275,-0.0187,-0.0008,0.5966,29.2881,-38.7439,
9.3740,0.0296,-0.2127,1.0050,-0.0168,-0.0051,0.0280,-0.0293,-0.0184,-0.0011,0.5966,29.2881,-38.7439,
9.3740,0.0296,-0.2127,1.0050,-0.0168,-0.0051,0.0280,-0.0293,-0.0184,-0.0011,0.5684,29.3488,-38.6941,
9.3820,0.0296,-0.2127,1.0050,-0.0501,0.0255,0.0133,-0.0293,-0.0184,-0.0011,0.5684,29.3488,-38.6941,
9.3830,0.0282,-0.2118,1.0085,-0.0501,0.0255,0.0133,-0.0293,-0.0184,-0.0011,0.5684,29.3488,-38.6941,
9.4420,0.0292,-0.2121,0.9930,-0.0501,0.0255,0.0133,-0.0293,-0.0184,-0.0011,0.5684,29.3488,-38.6941,
9.4430,0.0286,-0.2168,1.0040,-0.0501,0.0255,0.0133,-0.0293,-0.0184,-0.0011,0.5684,29.3488,-38.6941,
9.4440,0.0333,-0.2219,1.0065,-0.0501,0.0255,0.0133,-0.0293,-0.0184,-0.0011,0.5684,29.3488,-38.6941,
9.4440,0.0333,-0.2219,1.0065,-0.0103,0.0557,0.0352,-0.0293,-0.0184,-0.0011,0.5684,29.3488,-38.6941,
9.4450,0.0333,-0.2219,1.0065,-0.0103,0.0557,0.0352,-0.0296,-0.0022,-0.0029,0.5684,29.3488,-38.6941,
9.4460,0.0333,-0.2219,1.0065,-0.0103,0.0557,0.0352,-0.0528,-0.0220,-0.0029,0.5684,29.3488,-38.6941,
9.4510,0.0333,-0.2219,1.0065,-0.0103,0.0557,0.0352,-0.0528,-0.0220,-0.0029,0.5637,29.4282,-38.6917,
9.5110,0.0304,-0.2214,0.9998,-0.0103,0.0557,0.0352,-0.0528,-0.0220,-0.0029,0.5637,29.4282,-38.6917,
9.5120,0.0266,-0.2167,1.0008,-0.0103,0.0557,0.0352,-0.0528,-0.0220,-0.0029,0.5637,29.4282,-38.6917,
9.5130,0.0261,-0.2165,1.0017,-0.0103,0.0557,0.0352,-0.0528,-0.0220,-0.0029,0.5637,29.4282,-38.6917,
9.5140,0.0261,-0.2165,1.0017,-0.0103,0.0557,0.0352,-0.0223,0.0070,0.0001,0.5637,29.4282,-38.6917,
9.5140,0.0261,-0.2165,1.0017,-0.0103,0.0557,0.0352,-0.0223,0.0070,0.0001,0.5544,29.5106,-38.6367,
9.5190,0.0305,-0.2170,1.0102,-0.0103,0.0557,0.0352,-0.0223,0.0070,0.0001,0.5544,29.5106,-38.6367,
9.5190,0.0305,-0.2170,1.0102,-0.0103,0.0557,0.0352,-0.0351,-0.0168,-0.0014,0.5544,29.5106,-38.6367,
9.5200,0.0305,-0.2170,1.0102,0.0004,0.0303,-0.0111,-0.0351,-0.0168,-0.0014,0.5544,29.5106,-38.6367,
9.5700,0.0287,-0.2201,1.0057,0.0004,0.0303,-0.0111,-0.0351,-0.0168,-0.0014,0.5544,29.5106,-38.6367,
9.5710,0.0278,-0.2228,0.9985,0.0004,0.0303,-0.0111,-0.0351,-0.0168,-0.0014,0.5544,29.5106,-38.6367,
9.5720,0.0278,-0.2228,0.9985,0.0004,0.0303,-0.0111,-0.0351,-0.0168,-0.0014,0.5131,29.5624,-38.5690,
9.5730,0.0278,-0.2228,0.9985,0.0004,0.0303,-0.0111,-0.0269,-0.0120,-0.0017,0.5131,29.5624,-38.5690,
9.5780,0.0278,-0.2228,0.9985,-0.0281,0.0495,0.0199,-0.0269,-0.0120,-0.0017,0.5131,29.5624,-38.5690,
9.5790,0.0305,-0.2259,1.0042,-0.0281,0.0495,0.0199,-0.0269,-0.0120,-0.0017,0.5131,29.5624,-38.5690,
9.6440,0.0311,-0.2259,1.0025,-0.0281,0.0495,0.0199,-0.0269,-0.0120,-0.0017,0.5131,29.5624,-38.5690,
9.6450,0.0307,-0.2229,0.9982,-0.0281,0.0495,0.0199,-0.0269,-0.0120,-0.0017,0.5131,29.5624,-38.5690,
9.6460,0.0281,-0.2195,1.0018,-0.0281,0.0495,0.0199,-0.0269,-0.0120,-0.0017,0.5131,29.5624,-38.5690,
9.6460,0.0281,-0.2195,1.0018,-0.0281,0.0495,0.0199,-0.0217,-0.0165,-0.0008,0.5131,29.5624,-38.5690,
9.6470,0.0281,-0.2195,1.0018,-0.0281,0.0495,0.0199,-0.0134,-0.0043,-0.0005,0.5131,29.5624,-38.5690,
9.6500,0.0281,-0.2195,1.0018,-0.0281,0.0495,0.0199,-0.0134,-0.0043,-0.0005,0.5004,29.6296,-38.5475,
9.6550,0.0281,-0.2195,1.0018,-0.0205,0.0029,0.0130,-0.0134,-0.0043,-0.0005,0.5004,29.6296,-38.5475,
9.6560,0.0304,-0.2202,1.0050,-0.0205,0.0029,0.0130,-0.0134,-0.0043,-0.0005,0.5004,29.6296,-38.5475,
9.7110,0.0298,-0.2204,1.0010,-0.0205,0.0029,0.0130,-0.0134,-0.0043,-0.0005,0.5004,29.6296,-38.5475,
9.7120,0.0298,-0.2203,1.0006,-0.0205,0.0029,0.0130,-0.0134,-0.0043,-0.0005,0.5004,29.6296,-38.5475,
9.7130,0.0298,-0.2203,1.0006,-0.0205,0.0029,0.0130,-0.0134,-0.0043,-0.0005,0.4778,29.6888,-38.5076,
9.7140,0.0298,-0.2203,1.0006,-0.0205,0.0029,0.0130,-0.0043,-0.0086,0.0011,0.4778,29.6888,-38.5076,
9.7140,0.0299,-0.2208,1.0004,-0.0205,0.0029,0.0130,-0.0043,-0.0086,0.0011,0.4778,29.6888,-38.5076,
9.7150,0.0299,-0.2208,1.0004,-0.0205,0.0029,0.0130,-0.0125,-0.0074,0.0014,0.4778,29.6888,-38.5076,
9.7150,0.0299,-0.2208,1.0004,-0.0201,0.0253,0.0028,-0.0125,-0.0074,0.0014,0.4778,29.6888,-38.5076,
9.7430,0.0294,-0.2214,1.0031,-0.0201,0.0253,0.0028,-0.0125,-0.0074,0.0014,0.4778,29.6888,-38.5076,
9.7710,0.0294,-0.2214,1.0031,-0.0201,0.0253,0.0028,-0.0156,-0.0074,-0.0002,0.4778,29.6888,-38.5076,
9.7720,0.0294,-0.2214,1.0031,-0.0201,0.0253,0.0028,-0.0156,-0.0074,-0.0002,0.4425,29.7240,-38.4967,
9.7730,0.0314,-0.2208,1.0021,-0.0201,0.0253,0.0028,-0.0156,-0.0074,-0.0002,0.4425,29.7240,-38.4967,
9.7790,0.0308,-0.2209,1.0050,-0.0201,0.0253,0.0028,-0.0156,-0.0074,-0.0002,0.4425,29.7240,-38.4967,
9.7930,0.0297,-0.2229,1.0020,-0.0201,0.0253,0.0028,-0.0156,-0.0074,-0.0002,0.4425,29.7240,-38.4967,
9.7940,0.0297,-0.2229,1.0020,-0.0201,0.0253,0.0028,-0.0116,-0.0028,0.0007,0.4425,29.7240,-38.4967,
9.7940,0.0297,-0.2229,1.0020,-0.0234,0.0381,-0.0045,-0.0116,-0.0028,0.0007,0.4425,29.7240,-38.4967,
9.8450,0.0303,-0.2234,0.9999,-0.0234,0.0381,-0.0045,-0.0116,-0.0028,0.0007,0.4425,29.7240,-38.4967,
9.8460,0.0303,-0.2234,0.9999,-0.0234,0.0381,-0.0045,-0.0098,0.0030,0.0007,0.4425,29.7240,-38.4967,
9.8470,0.0304,-0.2256,0.9920,-0.0234,0.0381,-0.0045,-0.0098,0.0030,0.0007,0.4425,29.7240,-38.4967,
9.8510,0.0304,-0.2256,0.9920,-0.0136,0.0329,0.0218,-0.0098,0.0030,0.0007,0.4425,29.7240,-38.4967,
9.8520,0.0304,-0.2256,0.9920,-0.0136,0.0329,0.0218,-0.0098,0.0030,0.0007,0.4303,29.7597,-38.4679,
9.8530,0.0280,-0.2242,0.9937,-0.0136,0.0329,0.0218,-0.0098,0.0030,0.0007,0.4303,29.7597,-38.4679,
9.9110,0.0280,-0.2242,0.9937,-0.0136,0.0329,0.0218,-0.0165,-0.0040,-0.0026,0.4303,29.7597,-38.4679,
9.9130,0.0280,-0.2242,0.9937,-0.0136,0.0329,0.0218,-0.0165,-0.0040,-0.0026,0.4707,29.7993,-38.4353,
9.9140,0.0280,-0.2242,0.9937,-0.0136,0.0329,0.0218,-0.0101,-0.0013,-0.0047,0.4707,29.7993,-38.4353,
9.9140,0.0258,-0.2234,1.0018,-0.0136,0.0329,0.0218,-0.0101,-0.0013,-0.0047,0.4707,29.7993,-38.4353,
9.9150,0.0296,-0.2223,1.0057,-0.0136,0.0329,0.0218,-0.0101,-0.0013,-0.0047,0.4707,29.7993,-38.4353,
9.9160,0.0283,-0.2235,1.0004,-0.0136,0.0329,0.0218,-0.0101,-0.0013,-0.0047,0.4707,29.7993,-38.4353,
9.9290,0.0283,-0.2235,1.0004,-0.0263,0.0135,-0.0501,-0.0101,-0.0013,-0.0047,0.4707,29.7993,-38.4353,
9.9310,0.0285,-0.2261,0.9913,-0.0263,0.0135,-0.0501,-0.0101,-0.0013,-0.0047,0.4707,29.7993,-38.4353,
9.9710,0.0296,-0.2278,1.0003,-0.0263,0.0135,-0.0501,-0.0101,-0.0013,-0.0047,0.4707,29.7993,-38.4353,
9.9720,0.0296,-0.2278,1.0003,-0.0263,0.0135,-0.0501,-0.0101,-0.0013,-0.0047,0.5076,29.8294,-38.3859,
9.9730,0.0386,-0.2291,1.0142,-0.0263,0.0135,-0.0501,-0.0101,-0.0013,-0.0047,0.5076,29.8294,-38.3859,
9.9730,0.0386,-0.2291,1.0142,-0.0263,0.0135,-0.0501,-0.0153,-0.0086,-0.0029,0.5076,29.8294,-38.3859,
9.9870,0.0300,-0.2262,1.0014,-0.0263,0.0135,-0.0501,-0.0153,-0.0086,-0.0029,0.5076,29.8294,-38.3859,
9.9880,0.0300,-0.2262,1.0014,-0.0345,0.0237,0.0025,-0.0153,-0.0086,-0.0029,0.5076,29.8294,-38.3859,
9.9880,0.0300,-0.2262,1.0014,-0.0345,0.0237,0.0025,0.0086,-0.0065,0.0007,0.5076,29.8294,-38.3859,
10.0450,0.0285,-0.2202,0.9859,-0.0345,0.0237,0.0025,0.0086,-0.0065,0.0007,0.5076,29.8294,-38.3859,
10.0460,0.0285,-0.2202,0.9859,-0.0345,0.0237,0.0025,0.0067,-0.0068,0.0014,0.5076,29.8294,-38.3859,
10.0470,0.0320,-0.2165,1.0036,-0.0345,0.0237,0.0025,0.0067,-0.0068,0.0014,0.5076,29.8294,-38.3859,
10.0510,0.0320,-0.2165,1.0036,-0.0345,0.0237,0.0025,0.0067,-0.0068,0.0014,0.4969,29.8498,-38.4006,
10.0520,0.0304,-0.2142,0.9974,-0.0345,0.0237,0.0025,0.0067,-0.0068,0.0014,0.4969,29.8498,-38.4006,
10.0650,0.0303,-0.2180,0.9991,-0.0345,0.0237,0.0025,0.0067,-0.0068,0.0014,0.4969,29.8498,-38.4006,
10.0660,0.0303,-0.2180,0.9991,-0.0007,-0.0088,0.0110,0.0067,-0.0068,0.0014,0.4969,29.8498,-38.4006,
10.0670,0.0303,-0.2180,0.9991,-0.0007,-0.0088,0.0110,-0.0159,-0.0083,-0.0032,0.4969,29.8498,-38.4006,
10.1110,0.0303,-0.2180,0.9991,-0.0007,-0.0088,0.0110,-0.0110,-0.0083,-0.0005,0.4969,29.8498,-38.4006,
10.1120,0.0309,-0.2259,1.0036,-0.0007,-0.0088,0.0110,-0.0110,-0.0083,-0.0005,0.4969,29.8498,-38.4006,
10.1120,0.0316,-0.2279,0.9999,-0.0007,-0.0088,0.0110,-0.0110,-0.0083,-0.0005,0.4969,29.8498,-38.4006,
10.1130,0.0316,-0.2279,0.9999,-0.0007,-0.0088,0.0110,-0.0110,-0.0083,-0.0005,0.4918,29.8687,-38.3973,
10.1240,0.0316,-0.2279,0.9999,-0.0200,0.0866,-0.0105,-0.0110,-0.0083,-0.0005,0.4918,29.8687,-38.3973,
10.1260,0.0303,-0.2280,0.9981,-0.0200,0.0866,-0.0105,-0.0110,-0.0083,-0.0005,0.4918,29.8687,-38.3973,
10.1710,0.0303,-0.2280,0.9981,-0.0200,0.0866,-0.0105,-0.0140,-0.0080,0.0011,0.4918,29.8687,-38.3973,
10.1720,0.0311,-0.2259,1.0046,-0.0200,0.0866,-0.0105,-0.0140,-0.0080,0.0011,0.4918,29.8687,-38.3973,
10.1730,0.0302,-0.2250,1.0056,-0.0200,0.0866,-0.0105,-0.0140,-0.0080,0.0011,0.4918,29.8687,-38.3973,
10.1740,0.0302,-0.2250,1.0056,-0.0200,0.0866,-0.0105,-0.0140,-0.0080,0.0011,0.4827,29.8846,-38.3486,
10.2020,0.0291,-0.2244,0.9981,-0.0200,0.0866,-0.0105,-0.0140,-0.0080,0.0011,0.4827,29.8846,-38.3486,
10.2040,0.0291,-0.2244,0.9981,-0.0200,0.0866,-0.0105,0.0040,-0.0034,-0.0008,0.4827,29.8846,-38.3486,
10.2040,0.0296,-0.2256,0.9957,-0.0200,0.0866,-0.0105,0.0040,-0.0034,-0.0008,0.4827,29.8846,-38.3486,
10.2050,0.0296,-0.2256,0.9957,-0.0183,-0.0079,0.0074,0.0040,-0.0034,-0.0008,0.4827,29.8846,-38.3486,
10.2460,0.0305,-0.2242,0.9988,-0.0183,-0.0079,0.0074,0.0040,-0.0034,-0.0008,0.4827,29.8846,-38.3486,
10.2470,0.0305,-0.2242,0.9988,-0.0183,-0.0079,0.0074,0.0052,-0.0068,0.0004,0.4827,29.8846,-38.3486,
10.2480,0.0299,-0.2207,1.0002,-0.0183,-0.0079,0.0074,0.0052,-0.0068,0.0004,0.4827,29.8846,-38.3486,
10.2510,0.0299,-0.2207,1.0002,-0.0183,-0.0079,0.0074,0.0052,-0.0068,0.0004,0.5129,29.9062,-38.3406,
10.2610,0.0299,-0.2207,1.0002,-0.0183,-0.0079,0.0074,0.0122,0.0003,-0.0011,0.5129,29.9062,-38.3406,
10.2620,0.0283,-0.2195,0.9998,-0.0183,-0.0079,0.0074,0.0122,0.0003,-0.0011,0.5129,29.9062,-38.3406,
10.2630,0.0283,-0.2195,0.9998,-0.0287,0.0085,0.0068,0.0122,0.0003,-0.0011,0.5129,29.9062,-38.3406,
10.3110,0.0283,-0.2195,0.9998,-0.0287,0.0085,0.0068,0.0122,0.0003,-0.0011,0.5238,29.9269,-38.3192,
10.3130,0.0283,-0.2195,0.9998,-0.0287,0.0085,0.0068,-0.0092,-0.0003,-0.0017,0.5238,29.9269,-38.3192,
10.3130,0.0296,-0.2190,0.9942,-0.0287,0.0085,0.0068,-0.0092,-0.0003,-0.0017,0.5238,29.9269,-38.3192,
10.3140,0.0293,-0.2207,1.0009,-0.0287,0.0085,0.0068,-0.0092,-0.0003,-0.0017,0.5238,29.9269,-38.3192,
10.3400,0.0293,-0.2207,1.0009,-0.0279,0.0400,-0.0080,-0.0092,-0.0003,-0.0017,0.5238,29.9269,-38.3192,
10.3410,0.0338,-0.2246,1.0039,-0.0279,0.0400,-0.0080,-0.0092,-0.0003,-0.0017,0.5238,29.9269,-38.3192,
10.3420,0.0332,-0.2250,0.9984,-0.0279,0.0400,-0.0080,-0.0092,-0.0003,-0.0017,0.5238,29.9269,-38.3192,
10.3420,0.0332,-0.2250,0.9984,-0.0279,0.0400,-0.0080,0.0031,-0.0049,0.0001,0.5238,29.9269,-38.3192,
10.3710,0.0332,-0.2250,0.9984,-0.0279,0.0400,-0.0080,0.0031,-0.0049,0.0001,0.4801,29.9136,-38.3098,
10.3730,0.0310,-0.2190,0.9960,-0.0279,0.0400,-0.0080,0.0031,-0.0049,0.0001,0.4801,29.9136,-38.3098,
10.3780,0.0318,-0.2184,0.9975,-0.0279,0.0400,-0.0080,0.0031,-0.0049,0.0001,0.4801,29.9136,-38.3098,
10.3790,0.0318,-0.2184,0.9975,-0.0279,0.0400,-0.0080,0.0089,0.0094,0.0014,0.4801,29.9136,-38.3098,
10.3980,0.0318,-0.2184,0.9975,-0.0045,0.0162,-0.0051,0.0089,0.0094,0.0014,0.4801,29.9136,-38.3098,
10.3990,0.0304,-0.2202,1.0020,-0.0045,0.0162,-0.0051,0.0089,0.0094,0.0014,0.4801,29.9136,-38.3098,
10.4440,0.0304,-0.2239,1.0019,-0.0045,0.0162,-0.0051,0.0089,0.0094,0.0014,0.4801,29.9136,-38.3098,
10.4450,0.0307,-0.2261,0.9990,-0.0045,0.0162,-0.0051,0.0089,0.0094,0.0014,0.4801,29.9136,-38.3098,
10.4460,0.0307,-0.2261,0.9990,-0.0045,0.0162,-0.0051,0.0055,-0.0049,0.0007,0.4801,29.9136,-38.3098,
10.4510,0.0307,-0.2261,0.9990,-0.0045,0.0162,-0.0051,0.0055,-0.0049,0.0007,0.4494,29.8751,-38.3064,
10.4760,0.0307,-0.2261,0.9990,-0.0130,0.0385,-0.0105,0.0055,-0.0049,0.0007,0.4494,29.8751,-38.3064,
10.4770,0.0307,-0.2261,0.9990,-0.0130,0.0385,-0.0105,0.0217,0.0006,0.0023,0.4494,29.8751,-38.3064,
10.4780,0.0299,-0.2253,0.9982,-0.0130,0.0385,-0.0105,0.0217,0.0006,0.0023,0.4494,29.8751,-38.3064,
10.4780,0.0280,-0.2233,0.9980,-0.0130,0.0385,-0.0105,0.0217,0.0006,0.0023,0.4494,29.8751,-38.3064,
10.5110,0.0287,-0.2211,0.9996,-0.0130,0.0385,-0.0105,0.0217,0.0006,0.0023,0.4494,29.8751,-38.3064,
10.5120,0.0287,-0.2211,0.9996,-0.0130,0.0385,-0.0105,0.0217,0.0006,0.0023,0.4180,29.8575,-38.2927,
10.5130,0.0287,-0.2211,0.9996,-0.0130,0.0385,-0.0105,0.0156,-0.0034,0.0007,0.4180,29.8575,-38.2927,
10.5340,0.0280,-0.2187,0.9986,-0.0130,0.0385,-0.0105,0.0156,-0.0034,0.0007,0.4180,29.8575,-38.2927,
10.5360,0.0280,-0.2187,0.9986,-0.0130,0.0385,-0.0105,0.0122,0.0009,-0.0008,0.4180,29.8575,-38.2927,
10.5360,0.0280,-0.2187,0.9986,-0.0226,-0.0210,-0.0127,0.0122,0.0009,-0.0008,0.4180,29.8575,-38.2927,
10.5370,0.0271,-0.2181,1.0007,-0.0226,-0.0210,-0.0127,0.0122,0.0009,-0.0008,0.4180,29.8575,-38.2927,
10.5710,0.0271,-0.2181,1.0007,-0.0226,-0.0210,-0.0127,0.0122,0.0009,-0.0008,0.4121,29.8431,-38.2762,
10.5720,0.0286,-0.2182,1.0008,-0.0226,-0.0210,-0.0127,0.0122,0.0009,-0.0008,0.4121,29.8431,-38.2762,
10.5770,0.0296,-0.2182,1.0012,-0.0226,-0.0210,-0.0127,0.0122,0.0009,-0.0008,0.4121,29.8431,-38.2762,
10.5780,0.0296,-0.2182,1.0012,-0.0226,-0.0210,-0.0127,0.0061,-0.0058,-0.0008,0.4121,29.8431,-38.2762,
10.6110,0.0296,-0.2182,1.0012,-0.0226,-0.0210,-0.0127,0.0052,-0.0010,-0.0005,0.4121,29.8431,-38.2762,
10.6130,0.0294,-0.2180,0.9987,-0.0226,-0.0210,-0.0127,0.0052,-0.0010,-0.0005,0.4121,29.8431,-38.2762,
10.6130,0.0302,-0.2164,0.9998,-0.0226,-0.0210,-0.0127,0.0052,-0.0010,-0.0005,0.4121,29.8431,-38.2762,
10.6140,0.0302,-0.2164,0.9998,-0.0360,0.0252,-0.0055,0.0052,-0.0010,-0.0005,0.4121,29.8431,-38.2762,
10.6440,0.0318,-0.2162,1.0017,-0.0360,0.0252,-0.0055,0.0052,-0.0010,-0.0005,0.4121,29.8431,-38.2762,
10.6510,0.0318,-0.2162,1.0017,-0.0360,0.0252,-0.0055,0.0052,-0.0010,-0.0005,0.3942,29.8263,-38.2882,
10.6710,0.0300,-0.2171,1.0001,-0.0360,0.0252,-0.0055,0.0052,-0.0010,-0.0005,0.3942,29.8263,-38.2882,
10.6720,0.0300,-0.2171,1.0001,-0.0360,0.0252,-0.0055,0.0034,-0.0003,-0.0002,0.3942,29.8263,-38.2882,
10.6720,0.0289,-0.2178,0.9998,-0.0360,0.0252,-0.0055,0.0034,-0.0003,-0.0002,0.3942,29.8263,-38.2882,
10.6730,0.0289,-0.2178,0.9998,-0.0199,0.0322,-0.0019,0.0034,-0.0003,-0.0002,0.3942,29.8263,-38.2882,
10.7110,0.0318,-0.2181,1.0047,-0.0199,0.0322,-0.0019,0.0034,-0.0003,-0.0002,0.3942,29.8263,-38.2882,
10.7120,0.0318,-0.2181,1.0047,-0.0199,0.0322,-0.0019,-0.0015,-0.0022,-0.0002,0.3942,29.8263,-38.2882,
10.7120,0.0318,-0.2181,1.0047,-0.0199,0.0322,-0.0019,-0.0015,-0.0022,-0.0002,0.3761,29.7847,-38.3080,
10.7130,0.0315,-0.2190,0.9996,-0.0199,0.0322,-0.0019,-0.0015,-0.0022,-0.0002,0.3761,29.7847,-38.3080,
10.7450,0.0298,-0.2197,0.9988,-0.0199,0.0322,-0.0019,-0.0015,-0.0022,-0.0002,0.3761,29.7847,-38.3080,
10.7460,0.0298,-0.2197,0.9988,-0.0199,0.0322,-0.0019,-0.0021,0.0042,0.0020,0.3761,29.7847,-38.3080,
10.7490,0.0298,-0.2197,0.9988,-0.0108,0.0334,0.0071,-0.0021,0.0042,0.0020,0.3761,29.7847,-38.3080,
10.7500,0.0293,-0.2193,1.0003,-0.0108,0.0334,0.0071,-0.0021,0.0042,0.0020,0.3761,29.7847,-38.3080,
10.7710,0.0285,-0.2178,1.0034,-0.0108,0.0334,0.0071,-0.0021,0.0042,0.0020,0.3761,29.7847,-38.3080,
10.7720,0.0285,-0.2178,1.0034,-0.0108,0.0334,0.0071,0.0058,0.0045,0.0023,0.3761,29.7847,-38.3080,
10.7720,0.0285,-0.2178,1.0034,-0.0108,0.0334,0.0071,0.0058,0.0045,0.0023,0.3208,29.7475,-38.3173,
10.8070,0.0289,-0.2152,1.0060,-0.0108,0.0334,0.0071,0.0058,0.0045,0.0023,0.3208,29.7475,-38.3173,
10.8080,0.0289,-0.2152,1.0060,-0.0052,0.0100,-0.0013,0.0058,0.0045,0.0023,0.3208,29.7475,-38.3173,
10.8090,0.0232,-0.2153,0.9953,-0.0052,0.0100,-0.0013,0.0058,0.0045,0.0023,0.3208,29.7475,-38.3173,
10.8090,0.0232,-0.2153,0.9953,-0.0052,0.0100,-0.0013,-0.0043,0.0146,0.0004,0.3208,29.7475,-38.3173,
10.8450,0.0252,-0.2182,0.9927,-0.0052,0.0100,-0.0013,-0.0043,0.0146,0.0004,0.3208,29.7475,-38.3173,
10.8510,0.0302,-0.2206,1.0042,-0.0052,0.0100,-0.0013,-0.0043,0.0146,0.0004,0.3208,29.7475,-38.3173,
10.8530,0.0302,-0.2206,1.0042,-0.0052,0.0100,-0.0013,-0.0143,-0.0077,0.0029,0.3208,29.7475,-38.3173,
10.8530,0.0302,-0.2206,1.0042,-0.0052,0.0100,-0.0013,-0.0143,-0.0077,0.0029,0.3130,29.7030,-38.3410,
10.8860,0.0365,-0.2217,1.0162,-0.0052,0.0100,-0.0013,-0.0143,-0.0077,0.0029,0.3130,29.7030,-38.3410,
10.8870,0.0365,-0.2217,1.0162,-0.0371,0.0401,0.0087,-0.0143,-0.0077,0.0029,0.3130,29.7030,-38.3410,
10.8870,0.0260,-0.2184,1.0071,-0.0371,0.0401,0.0087,-0.0143,-0.0077,0.0029,0.3130,29.7030,-38.3410,
10.8880,0.0260,-0.2184,1.0071,-0.0371,0.0401,0.0087,0.0260,-0.0000,0.0026,0.3130,29.7030,-38.3410,
10.9120,0.0260,-0.2184,1.0071,-0.0371,0.0401,0.0087,0.0260,-0.0000,0.0026,0.3367,29.6738,-38.3678,
10.9130,0.0248,-0.2143,0.9855,-0.0371,0.0401,0.0087,0.0260,-0.0000,0.0026,0.3367,29.6738,-38.3678,
10.9450,0.0248,-0.2143,0.9855,-0.0005,-0.0096,0.0446,0.0260,-0.0000,0.0026,0.3367,29.6738,-38.3678,
10.9470,0.0248,-0.2143,0.9855,-0.0005,-0.0096,0.0446,0.0232,-0.0052,0.0020,0.3367,29.6738,-38.3678,
10.9480,0.0310,-0.2120,1.0051,-0.0005,-0.0096,0.0446,0.0232,-0.0052,0.0020,0.3367,29.6738,-38.3678,
10.9480,0.0287,-0.2076,1.0029,-0.0005,-0.0096,0.0446,0.0232,-0.0052,0.0020,0.3367,29.6738,-38.3678,
10.9710,0.0287,-0.2076,1.0029,-0.0005,-0.0096,0.0446,0.0232,-0.0052,0.0020,0.3286,29.6753,-38.3885,
10.9730,0.0287,-0.2076,1.0029,-0.0005,-0.0096,0.0446,-0.0046,0.0009,-0.0017,0.3286,29.6753,-38.3885,
10.9730,0.0285,-0.2104,1.0032,-0.0005,-0.0096,0.0446,-0.0046,0.0009,-0.0017,0.3286,29.6753,-38.3885,
11.0220,0.0285,-0.2104,1.0032,-0.0201,0.0695,-0.0228,-0.0046,0.0009,-0.0017,0.3286,29.6753,-38.3885,
11.0240,0.0277,-0.2171,1.0065,-0.0201,0.0695,-0.0228,-0.0046,0.0009,-0.0017,0.3286,29.6753,-38.3885,
11.0250,0.0291,-0.2223,1.0023,-0.0201,0.0695,-0.0228,-0.0046,0.0009,-0.0017,0.3286,29.6753,-38.3885,
11.0250,0.0286,-0.2207,1.0023,-0.0201,0.0695,-0.0228,-0.0046,0.0009,-0.0017,0.3286,29.6753,-38.3885,
11.0260,0.0286,-0.2207,1.0023,-0.0201,0.0695,-0.0228,0.0003,-0.0031,-0.0029,0.3286,29.6753,-38.3885,
11.0450,0.0280,-0.2175,1.0026,-0.0201,0.0695,-0.0228,0.0003,-0.0031,-0.0029,0.3286,29.6753,-38.3885,
11.0490,0.0280,-0.2175,1.0026,-0.0201,0.0695,-0.0228,0.0089,0.0036,-0.0029,0.3286,29.6753,-38.3885,
11.0510,0.0280,-0.2175,1.0026,-0.0201,0.0695,-0.0228,0.0089,0.0036,-0.0029,0.3469,29.6580,-38.4329,
11.0800,0.0280,-0.2175,1.0026,-0.0150,-0.0109,0.0211,0.0089,0.0036,-0.0029,0.3469,29.6580,-38.4329,
11.0820,0.0280,-0.2175,1.0026,-0.0150,-0.0109,0.0211,0.0183,0.0064,0.0004,0.3469,29.6580,-38.4329,
11.0820,0.0278,-0.2168,1.0045,-0.0150,-0.0109,0.0211,0.0183,0.0064,0.0004,0.3469,29.6580,-38.4329,
11.0830,0.0281,-0.2143,1.0036,-0.0150,-0.0109,0.0211,0.0183,0.0064,0.0004,0.3469,29.6580,-38.4329,
11.1110,0.0277,-0.2127,1.0008,-0.0150,-0.0109,0.0211,0.0183,0.0064,0.0004,0.3469,29.6580,-38.4329,
11.1120,0.0277,-0.2127,1.0008,-0.0150,-0.0109,0.0211,0.0183,0.0064,0.0004,0.3550,29.6161,-38.4244,
11.1590,0.0277,-0.2127,1.0008,-0.0142,0.0069,0.0127,0.0183,0.0064,0.0004,0.3550,29.6161,-38.4244,
11.1600,0.0277,-0.2127,1.0008,-0.0142,0.0069,0.0127,0.0131,0.0048,0.0007,0.3550,29.6161,-38.4244,
11.1610,0.0277,-0.2127,1.0008,-0.0142,0.0069,0.0127,0.0061,0.0003,-0.0008,0.3550,29.6161,-38.4244,
11.1610,0.0272,-0.2119,1.0002,-0.0142,0.0069,0.0127,0.0061,0.0003,-0.0008,0.3550,29.6161,-38.4244,
11.1610,0.0271,-0.2114,1.0057,-0.0142,0.0069,0.0127,0.0061,0.0003,-0.0008,0.3550,29.6161,-38.4244,
11.1620,0.0272,-0.2096,1.0101,-0.0142,0.0069,0.0127,0.0061,0.0003,-0.0008,0.3550,29.6161,-38.4244,
11.1700,0.0272,-0.2096,1.0101,-0.0142,0.0069,0.0127,0.0061,0.0003,-0.0008,0.3633,29.5873,-38.4402,
11.1790,0.0254,-0.2088,0.9976,-0.0142,0.0069,0.0127,0.0061,0.0003,-0.0008,0.3633,29.5873,-38.4402,
11.2170,0.0231,-0.2112,1.0070,-0.0142,0.0069,0.0127,0.0061,0.0003,-0.0008,0.3633,29.5873,-38.4402,
11.2190,0.0293,-0.2147,1.0048,-0.0142,0.0069,0.0127,0.0061,0.0003,-0.0008,0.3633,29.5873,-38.4402,
11.2190,0.0293,-0.2147,1.0048,-0.0149,0.0421,0.0243,0.0061,0.0003,-0.0008,0.3633,29.5873,-38.4402,
11.2210,0.0293,-0.2147,1.0048,-0.0149,0.0421,0.0243,0.0021,0.0137,-0.0011,0.3633,29.5873,-38.4402,
11.2460,0.0275,-0.2137,1.0031,-0.0149,0.0421,0.0243,0.0021,0.0137,-0.0011,0.3633,29.5873,-38.4402,
11.2480,0.0275,-0.2137,1.0031,-0.0149,0.0421,0.0243,0.0031,0.0015,0.0007,0.3633,29.5873,-38.4402,
11.2510,0.0275,-0.2137,1.0031,-0.0149,0.0421,0.0243,0.0031,0.0015,0.0007,0.3600,29.5607,-38.4730,
11.2960,0.0275,-0.2137,1.0031,-0.0198,0.0284,0.0100,0.0031,0.0015,0.0007,0.3600,29.5607,-38.4730,
11.2980,0.0261,-0.2080,0.9990,-0.0198,0.0284,0.0100,0.0031,0.0015,0.0007,0.3600,29.5607,-38.4730,
11.2980,0.0261,-0.2080,0.9990,-0.0198,0.0284,0.0100,0.0021,0.0113,-0.0002,0.3600,29.5607,-38.4730,
11.2990,0.0244,-0.2085,1.0015,-0.0198,0.0284,0.0100,0.0021,0.0113,-0.0002,0.3600,29.5607,-38.4730,
11.2990,0.0253,-0.2102,1.0067,-0.0198,0.0284,0.0100,0.0021,0.0113,-0.0002,0.3600,29.5607,-38.4730,
11.3110,0.0253,-0.2102,1.0067,-0.0198,0.0284,0.0100,0.0021,0.0113,-0.0002,0.3679,29.5186,-38.4835,
11.3540,0.0253,-0.2102,1.0067,-0.0222,0.0526,-0.0009,0.0021,0.0113,-0.0002,0.3679,29.5186,-38.4835,
11.3550,0.0253,-0.2102,1.0067,-0.0222,0.0526,-0.0009,-0.0110,-0.0052,-0.0017,0.3679,29.5186,-38.4835,
11.3560,0.0261,-0.2134,1.0086,-0.0222,0.0526,-0.0009,-0.0110,-0.0052,-0.0017,0.3679,29.5186,-38.4835,
11.3560,0.0261,-0.2134,1.0086,-0.0222,0.0526,-0.0009,0.0009,-0.0034,0.0004,0.3679,29.5186,-38.4835,
11.3570,0.0260,-0.2160,1.0091,-0.0222,0.0526,-0.0009,0.0009,-0.0034,0.0004,0.3679,29.5186,-38.4835,
