
time,gFx,gFy,gFz,ax,ay,az,wx,wy,wz,Bx,By,Bz,
0.0430,0.0111,0.0295,1.0268,0.0000,0.0000,0.0000,0.0000,0.0000,0.0000,0.0000,0.0000,0.0000,
0.0430,0.0084,0.0274,1.0263,0.0000,0.0000,0.0000,0.0000,0.0000,0.0000,0.0000,0.0000,0.0000,
0.0430,0.0084,0.0274,1.0263,0.0000,0.0000,0.0000,-0.0176,0.0080,-0.0037,0.0000,0.0000,0.0000,
0.0830,0.0094,0.0265,1.0263,0.0000,0.0000,0.0000,-0.0176,0.0080,-0.0037,0.0000,0.0000,0.0000,
0.0840,0.0109,0.0278,1.0263,0.0000,0.0000,0.0000,-0.0176,0.0080,-0.0037,0.0000,0.0000,0.0000,
0.0850,0.0109,0.0278,1.0263,0.0000,0.0000,0.0000,0.0060,0.0046,0.0002,0.0000,0.0000,0.0000,
0.1040,0.0116,0.0303,1.0224,0.0000,0.0000,0.0000,0.0060,0.0046,0.0002,0.0000,0.0000,0.0000,
0.1500,0.0116,0.0303,1.0224,0.0000,0.0000,0.0000,0.0133,0.0046,-0.0004,0.0000,0.0000,0.0000,
0.1510,0.0103,0.0318,1.0206,0.0000,0.0000,0.0000,0.0133,0.0046,-0.0004,0.0000,0.0000,0.0000,
0.1510,0.0103,0.0318,1.0206,0.0000,0.0000,0.0000,0.0133,0.0046,-0.0004,-0.6382,18.8404,-45.2268,
0.1520,0.0092,0.0326,1.0234,0.0000,0.0000,0.0000,0.0133,0.0046,-0.0004,-0.6382,18.8404,-45.2268,
0.1550,0.0092,0.0326,1.0234,0.0000,0.0000,0.0000,-0.0005,0.0028,0.0014,-0.6382,18.8404,-45.2268,
0.1560,0.0101,0.0317,1.0299,0.0000,0.0000,0.0000,-0.0005,0.0028,0.0014,-0.6382,18.8404,-45.2268,
0.1570,0.0101,0.0317,1.0299,0.0000,0.0000,0.0000,-0.0005,0.0028,0.0014,-0.6382,18.8404,-45.2268,
0.2160,0.0101,0.0317,1.0299,0.0000,0.0000,0.0000,0.0011,-0.0055,0.0014,-0.6382,18.8404,-45.2268,
0.2170,0.0105,0.0315,1.0352,0.0000,0.0000,0.0000,0.0011,-0.0055,0.0014,-0.6382,18.8404,-45.2268,
0.2180,0.0114,0.0308,1.0297,0.0000,0.0000,0.0000,0.0011,-0.0055,0.0014,-0.6382,18.8404,-45.2268,
0.2190,0.0107,0.0333,1.0217,0.0000,0.0000,0.0000,0.0011,-0.0055,0.0014,-0.6382,18.8404,-45.2268,
0.2190,0.0107,0.0333,1.0217,0.0000,0.0000,0.0000,0.0011,-0.0055,0.0014,-0.6020,18.7563,-45.1585,
0.2330,0.0107,0.0333,1.0217,0.0000,0.0000,0.0000,-0.0038,-0.0085,0.0008,-0.6020,18.7563,-45.1585,
0.2340,0.0101,0.0351,1.0216,0.0000,0.0000,0.0000,-0.0038,-0.0085,0.0008,-0.6020,18.7563,-45.1585,
0.2350,0.0101,0.0351,1.0216,-0.0035,0.0197,0.0036,-0.0038,-0.0085,0.0008,-0.6020,18.7563,-45.1585,
0.2840,0.0101,0.0351,1.0216,-0.0035,0.0197,0.0036,-0.0038,-0.0085,0.0008,-0.6064,18.7229,-44.9724,
0.2850,0.0095,0.0340,1.0257,-0.0035,0.0197,0.0036,-0.0038,-0.0085,0.0008,-0.6064,18.7229,-44.9724,
0.2860,0.0095,0.0340,1.0257,-0.0035,0.0197,0.0036,-0.0139,-0.0030,0.0005,-0.6064,18.7229,-44.9724,
0.2870,0.0093,0.0308,1.0317,-0.0035,0.0197,0.0036,-0.0139,-0.0030,0.0005,-0.6064,18.7229,-44.9724,
0.2910,0.0093,0.0308,1.0317,0.0015,0.0203,0.0019,-0.0139,-0.0030,0.0005,-0.6064,18.7229,-44.9724,
0.2920,0.0093,0.0275,1.0335,0.0015,0.0203,0.0019,-0.0139,-0.0030,0.0005,-0.6064,18.7229,-44.9724,
0.3520,0.0093,0.0275,1.0335,0.0015,0.0203,0.0019,0.0099,0.0058,-0.0010,-0.6064,18.7229,-44.9724,
0.3540,0.0098,0.0281,1.0317,0.0015,0.0203,0.0019,0.0099,0.0058,-0.0010,-0.6064,18.7229,-44.9724,
0.3550,0.0104,0.0314,1.0264,0.0015,0.0203,0.0019,0.0099,0.0058,-0.0010,-0.6064,18.7229,-44.9724,
0.3550,0.0104,0.0314,1.0264,0.0015,0.0203,0.0019,0.0099,0.0058,-0.0010,-0.5819,18.7237,-44.9800,
0.3710,0.0104,0.0314,1.0264,0.0015,0.0203,0.0019,0.0234,0.0067,-0.0013,-0.5819,18.7237,-44.9800,
0.3720,0.0105,0.0337,1.0212,0.0015,0.0203,0.0019,0.0234,0.0067,-0.0013,-0.5819,18.7237,-44.9800,
0.3720,0.0137,0.0337,1.0200,0.0015,0.0203,0.0019,0.0234,0.0067,-0.0013,-0.5819,18.7237,-44.9800,
0.3730,0.0137,0.0337,1.0200,-0.0042,-0.0120,0.0360,0.0234,0.0067,-0.0013,-0.5819,18.7237,-44.9800,
0.4170,0.0137,0.0337,1.0200,-0.0042,-0.0120,0.0360,0.0008,0.0012,-0.0019,-0.5819,18.7237,-44.9800,
0.4180,0.0142,0.0336,1.0183,-0.0042,-0.0120,0.0360,0.0008,0.0012,-0.0019,-0.5819,18.7237,-44.9800,
0.4210,0.0118,0.0335,1.0191,-0.0042,-0.0120,0.0360,0.0008,0.0012,-0.0019,-0.5819,18.7237,-44.9800,
0.4210,0.0118,0.0335,1.0191,-0.0042,-0.0120,0.0360,0.0008,0.0012,-0.0019,-0.5898,18.6599,-45.0100,
0.4290,0.0118,0.0335,1.0191,0.0085,0.0168,-0.0259,0.0008,0.0012,-0.0019,-0.5898,18.6599,-45.0100,
0.4300,0.0118,0.0335,1.0191,0.0085,0.0168,-0.0259,-0.0252,-0.0030,0.0014,-0.5898,18.6599,-45.0100,
0.4320,0.0090,0.0328,1.0214,0.0085,0.0168,-0.0259,-0.0252,-0.0030,0.0014,-0.5898,18.6599,-45.0100,
0.4830,0.0122,0.0342,1.0274,0.0085,0.0168,-0.0259,-0.0252,-0.0030,0.0014,-0.5898,18.6599,-45.0100,
0.4840,0.0110,0.0355,1.0323,0.0085,0.0168,-0.0259,-0.0252,-0.0030,0.0014,-0.5898,18.6599,-45.0100,
0.4850,0.0110,0.0355,1.0323,0.0085,0.0168,-0.0259,-0.0160,-0.0039,0.0045,-0.5898,18.6599,-45.0100,
0.4850,0.0110,0.0355,1.0323,0.0085,0.0168,-0.0259,-0.0160,-0.0039,0.0045,-0.5609,18.6591,-44.9919,
0.5050,0.0107,0.0325,1.0414,0.0085,0.0168,-0.0259,-0.0160,-0.0039,0.0045,-0.5609,18.6591,-44.9919,
0.5060,0.0129,0.0269,1.0451,0.0085,0.0168,-0.0259,-0.0160,-0.0039,0.0045,-0.5609,18.6591,-44.9919,
0.5060,0.0129,0.0269,1.0451,0.0085,0.0168,-0.0259,0.0322,0.0107,0.0036,-0.5609,18.6591,-44.9919,
0.5070,0.0129,0.0269,1.0451,0.0139,0.0141,-0.0471,0.0322,0.0107,0.0036,-0.5609,18.6591,-44.9919,
0.5500,0.0129,0.0283,1.0346,0.0139,0.0141,-0.0471,0.0322,0.0107,0.0036,-0.5609,18.6591,-44.9919,
0.5520,0.0129,0.0283,1.0346,0.0139,0.0141,-0.0471,0.0573,-0.0085,-0.0019,-0.5609,18.6591,-44.9919,
0.5520,0.0110,0.0323,1.0125,0.0139,0.0141,-0.0471,0.0573,-0.0085,-0.0019,-0.5609,18.6591,-44.9919,
0.5530,0.0110,0.0323,1.0125,0.0139,0.0141,-0.0471,0.0573,-0.0085,-0.0019,-0.4978,18.6590,-45.0215,
0.5660,0.0110,0.0323,1.0125,0.0065,-0.0140,0.1068,0.0573,-0.0085,-0.0019,-0.4978,18.6590,-45.0215,
0.5670,0.0060,0.0350,1.0020,0.0065,-0.0140,0.1068,0.0573,-0.0085,-0.0019,-0.4978,18.6590,-45.0215,
0.6170,0.0111,0.0369,1.0023,0.0065,-0.0140,0.1068,0.0573,-0.0085,-0.0019,-0.4978,18.6590,-45.0215,
0.6180,0.0111,0.0369,1.0023,0.0065,-0.0140,0.1068,-0.0206,-0.0104,0.0011,-0.4978,18.6590,-45.0215,
0.6190,0.0098,0.0401,1.0188,0.0065,-0.0140,0.1068,-0.0206,-0.0104,0.0011,-0.4978,18.6590,-45.0215,
0.6200,0.0098,0.0401,1.0188,0.0065,-0.0140,0.1068,-0.0206,-0.0104,0.0011,-0.4986,18.6772,-45.0185,
0.6380,0.0088,0.0399,1.0407,0.0065,-0.0140,0.1068,-0.0206,-0.0104,0.0011,-0.4986,18.6772,-45.0185,
0.6390,0.0088,0.0399,1.0407,0.0065,-0.0140,0.1068,-0.0618,0.0028,-0.0031,-0.4986,18.6772,-45.0185,
0.6450,0.0095,0.0372,1.0503,0.0065,-0.0140,0.1068,-0.0618,0.0028,-0.0031,-0.4986,18.6772,-45.0185,
0.6460,0.0095,0.0372,1.0503,-0.0049,0.0150,-0.1135,-0.0618,0.0028,-0.0031,-0.4986,18.6772,-45.0185,
0.6840,0.0095,0.0372,1.0503,-0.0049,0.0150,-0.1135,-0.0618,0.0028,-0.0031,-0.4770,18.6406,-44.9687,
0.6850,0.0095,0.0372,1.0503,-0.0049,0.0150,-0.1135,0.0267,0.0257,-0.0037,-0.4770,18.6406,-44.9687,
0.6860,0.0136,0.0289,1.0376,-0.0049,0.0150,-0.1135,0.0267,0.0257,-0.0037,-0.4770,18.6406,-44.9687,
0.6870,0.0132,0.0269,1.0263,-0.0049,0.0150,-0.1135,0.0267,0.0257,-0.0037,-0.4770,18.6406,-44.9687,
0.7010,0.0132,0.0269,1.0263,-0.0049,0.0150,-0.1135,0.0530,0.0269,0.0002,-0.4770,18.6406,-44.9687,
0.7020,0.0079,0.0302,1.0272,-0.0049,0.0150,-0.1135,0.0530,0.0269,0.0002,-0.4770,18.6406,-44.9687,
0.7030,0.0079,0.0302,1.0272,0.0098,0.0394,0.0577,0.0530,0.0269,0.0002,-0.4770,18.6406,-44.9687,
0.7500,0.0079,0.0302,1.0272,0.0098,0.0394,0.0577,0.0316,0.0144,0.0073,-0.4770,18.6406,-44.9687,
0.7510,0.0074,0.0356,1.0296,0.0098,0.0394,0.0577,0.0316,0.0144,0.0073,-0.4770,18.6406,-44.9687,
0.7520,0.0083,0.0384,1.0266,0.0098,0.0394,0.0577,0.0316,0.0144,0.0073,-0.4770,18.6406,-44.9687,
0.7520,0.0083,0.0384,1.0266,0.0098,0.0394,0.0577,0.0316,0.0144,0.0073,-0.4065,18.5952,-44.9562,
0.7720,0.0084,0.0378,1.0213,0.0098,0.0394,0.0577,0.0316,0.0144,0.0073,-0.4065,18.5952,-44.9562,
0.7800,0.0089,0.0364,1.0196,0.0098,0.0394,0.0577,0.0316,0.0144,0.0073,-0.4065,18.5952,-44.9562,
0.7810,0.0089,0.0364,1.0196,0.0187,-0.0560,0.0370,0.0316,0.0144,0.0073,-0.4065,18.5952,-44.9562,
0.7820,0.0089,0.0364,1.0196,0.0187,-0.0560,0.0370,0.0041,-0.0104,0.0030,-0.4065,18.5952,-44.9562,
0.8170,0.0089,0.0364,1.0196,0.0187,-0.0560,0.0370,0.0041,-0.0104,0.0030,-0.3610,18.5389,-44.9452,
0.8180,0.0088,0.0355,1.0205,0.0187,-0.0560,0.0370,0.0041,-0.0104,0.0030,-0.3610,18.5389,-44.9452,
0.8390,0.0088,0.0355,1.0205,0.0187,-0.0560,0.0370,-0.0099,-0.0082,-0.0004,-0.3610,18.5389,-44.9452,
0.8400,0.0088,0.0355,1.0205,-0.0075,0.0247,-0.0287,-0.0099,-0.0082,-0.0004,-0.3610,18.5389,-44.9452,
0.8410,0.0073,0.0359,1.0213,-0.0075,0.0247,-0.0287,-0.0099,-0.0082,-0.0004,-0.3610,18.5389,-44.9452,
0.8410,0.0066,0.0377,1.0203,-0.0075,0.0247,-0.0287,-0.0099,-0.0082,-0.0004,-0.3610,18.5389,-44.9452,
0.8830,0.0066,0.0377,1.0203,-0.0075,0.0247,-0.0287,-0.0063,0.0052,0.0051,-0.3610,18.5389,-44.9452,
0.8840,0.0066,0.0377,1.0203,-0.0075,0.0247,-0.0287,-0.0063,0.0052,0.0051,-0.2773,18.5136,-44.9310,
0.8850,0.0090,0.0392,1.0267,-0.0075,0.0247,-0.0287,-0.0063,0.0052,0.0051,-0.2773,18.5136,-44.9310,
0.8860,0.0129,0.0372,1.0322,-0.0075,0.0247,-0.0287,-0.0063,0.0052,0.0051,-0.2773,18.5136,-44.9310,
0.9040,0.0129,0.0372,1.0322,-0.0075,0.0247,-0.0287,0.0136,0.0067,0.0063,-0.2773,18.5136,-44.9310,
0.9050,0.0104,0.0361,1.0257,-0.0075,0.0247,-0.0287,0.0136,0.0067,0.0063,-0.2773,18.5136,-44.9310,
0.9170,0.0104,0.0361,1.0257,-0.0118,0.0116,-0.0451,0.0136,0.0067,0.0063,-0.2773,18.5136,-44.9310,
0.9180,0.0088,0.0378,1.0202,-0.0118,0.0116,-0.0451,0.0136,0.0067,0.0063,-0.2773,18.5136,-44.9310,
0.9500,0.0092,0.0414,1.0260,-0.0118,0.0116,-0.0451,0.0136,0.0067,0.0063,-0.2773,18.5136,-44.9310,
0.9510,0.0092,0.0414,1.0260,-0.0118,0.0116,-0.0451,0.0136,0.0067,0.0063,-0.2277,18.5248,-44.9543,
0.9520,0.0092,0.0414,1.0260,-0.0118,0.0116,-0.0451,0.0017,-0.0055,0.0091,-0.2277,18.5248,-44.9543,
0.9720,0.0099,0.0421,1.0278,-0.0118,0.0116,-0.0451,0.0017,-0.0055,0.0091,-0.2277,18.5248,-44.9543,
0.9750,0.0103,0.0405,1.0295,-0.0118,0.0116,-0.0451,0.0017,-0.0055,0.0091,-0.2277,18.5248,-44.9543,
0.9750,0.0103,0.0405,1.0295,-0.0118,0.0116,-0.0451,0.0002,0.0037,0.0069,-0.2277,18.5248,-44.9543,
0.9760,0.0103,0.0405,1.0295,0.0171,0.0132,0.0079,0.0002,0.0037,0.0069,-0.2277,18.5248,-44.9543,
1.0160,0.0103,0.0405,1.0295,0.0171,0.0132,0.0079,0.0108,0.0040,0.0042,-0.2277,18.5248,-44.9543,
1.0170,0.0093,0.0381,1.0290,0.0171,0.0132,0.0079,0.0108,0.0040,0.0042,-0.2277,18.5248,-44.9543,
1.0170,0.0079,0.0357,1.0239,0.0171,0.0132,0.0079,0.0108,0.0040,0.0042,-0.2277,18.5248,-44.9543,
1.0180,0.0079,0.0357,1.0239,0.0171,0.0132,0.0079,0.0108,0.0040,0.0042,-0.2048,18.4965,-44.9552,
1.0380,0.0089,0.0369,1.0208,0.0171,0.0132,0.0079,0.0108,0.0040,0.0042,-0.2048,18.4965,-44.9552,
1.0540,0.0089,0.0369,1.0208,0.0171,0.0132,0.0079,0.0093,-0.0003,0.0063,-0.2048,18.4965,-44.9552,
1.0550,0.0089,0.0369,1.0208,0.0080,0.0378,0.0194,0.0093,-0.0003,0.0063,-0.2048,18.4965,-44.9552,
1.0550,0.0090,0.0388,1.0234,0.0080,0.0378,0.0194,0.0093,-0.0003,0.0063,-0.2048,18.4965,-44.9552,
1.0830,0.0090,0.0388,1.0234,0.0080,0.0378,0.0194,0.0093,-0.0003,0.0063,-0.1952,18.4589,-44.9187,
1.0850,0.0093,0.0399,1.0252,0.0080,0.0378,0.0194,0.0093,-0.0003,0.0063,-0.1952,18.4589,-44.9187,
1.1040,0.0093,0.0399,1.0252,0.0080,0.0378,0.0194,0.0115,0.0028,0.0097,-0.1952,18.4589,-44.9187,
1.1050,0.0104,0.0396,1.0258,0.0080,0.0378,0.0194,0.0115,0.0028,0.0097,-0.1952,18.4589,-44.9187,
1.1120,0.0109,0.0381,1.0242,0.0080,0.0378,0.0194,0.0115,0.0028,0.0097,-0.1952,18.4589,-44.9187,
1.1130,0.0109,0.0381,1.0242,0.0012,-0.0057,-0.0214,0.0115,0.0028,0.0097,-0.1952,18.4589,-44.9187,
1.1500,0.0109,0.0381,1.0242,0.0012,-0.0057,-0.0214,0.0090,0.0116,0.0115,-0.1952,18.4589,-44.9187,
1.1510,0.0117,0.0380,1.0238,0.0012,-0.0057,-0.0214,0.0090,0.0116,0.0115,-0.1952,18.4589,-44.9187,
1.1520,0.0117,0.0380,1.0238,0.0012,-0.0057,-0.0214,0.0090,0.0116,0.0115,-0.1628,18.3824,-44.9095,
1.1710,0.0118,0.0370,1.0260,0.0012,-0.0057,-0.0214,0.0090,0.0116,0.0115,-0.1628,18.3824,-44.9095,
1.1720,0.0118,0.0370,1.0260,0.0012,-0.0057,-0.0214,0.0008,0.0049,0.0124,-0.1628,18.3824,-44.9095,
1.1720,0.0126,0.0369,1.0263,0.0012,-0.0057,-0.0214,0.0008,0.0049,0.0124,-0.1628,18.3824,-44.9095,
1.1900,0.0126,0.0369,1.0263,0.0192,0.0094,-0.0078,0.0008,0.0049,0.0124,-0.1628,18.3824,-44.9095,
1.1910,0.0117,0.0381,1.0274,0.0192,0.0094,-0.0078,0.0008,0.0049,0.0124,-0.1628,18.3824,-44.9095,
1.2160,0.0117,0.0381,1.0274,0.0192,0.0094,-0.0078,0.0008,0.0049,0.0124,-0.1290,18.3243,-44.9376,
1.2180,0.0117,0.0381,1.0274,0.0192,0.0094,-0.0078,0.0053,0.0019,0.0155,-0.1290,18.3243,-44.9376,
1.2180,0.0090,0.0400,1.0280,0.0192,0.0094,-0.0078,0.0053,0.0019,0.0155,-0.1290,18.3243,-44.9376,
1.2370,0.0073,0.0424,1.0235,0.0192,0.0094,-0.0078,0.0053,0.0019,0.0155,-0.1290,18.3243,-44.9376,
1.2480,0.0066,0.0430,1.0196,0.0192,0.0094,-0.0078,0.0053,0.0019,0.0155,-0.1290,18.3243,-44.9376,
1.2500,0.0066,0.0430,1.0196,0.0192,0.0094,-0.0078,0.0078,0.0083,0.0149,-0.1290,18.3243,-44.9376,
1.2500,0.0066,0.0430,1.0196,0.0341,-0.0079,0.0057,0.0078,0.0083,0.0149,-0.1290,18.3243,-44.9376,
1.2830,0.0066,0.0430,1.0196,0.0341,-0.0079,0.0057,0.0078,0.0083,0.0149,-0.1274,18.3648,-44.8965,
1.2840,0.0056,0.0422,1.0190,0.0341,-0.0079,0.0057,0.0078,0.0083,0.0149,-0.1274,18.3648,-44.8965,
1.3040,0.0056,0.0422,1.0190,0.0341,-0.0079,0.0057,-0.0114,0.0006,0.0063,-0.1274,18.3648,-44.8965,
1.3050,0.0039,0.0417,1.0234,0.0341,-0.0079,0.0057,-0.0114,0.0006,0.0063,-0.1274,18.3648,-44.8965,
1.3270,0.0039,0.0417,1.0234,0.0341,-0.0079,0.0057,-0.0078,-0.0070,0.0030,-0.1274,18.3648,-44.8965,
1.3280,0.0045,0.0421,1.0272,0.0341,-0.0079,0.0057,-0.0078,-0.0070,0.0030,-0.1274,18.3648,-44.8965,
1.3280,0.0055,0.0429,1.0277,0.0341,-0.0079,0.0057,-0.0078,-0.0070,0.0030,-0.1274,18.3648,-44.8965,
1.3290,0.0055,0.0429,1.0277,-0.0122,0.0375,-0.0241,-0.0078,-0.0070,0.0030,-0.1274,18.3648,-44.8965,
1.3490,0.0055,0.0429,1.0277,-0.0122,0.0375,-0.0241,-0.0078,-0.0070,0.0030,-0.1015,18.3843,-44.9329,
1.3510,0.0052,0.0433,1.0228,-0.0122,0.0375,-0.0241,-0.0078,-0.0070,0.0030,-0.1015,18.3843,-44.9329,
1.3700,0.0052,0.0433,1.0228,-0.0122,0.0375,-0.0241,0.0041,-0.0006,0.0011,-0.1015,18.3843,-44.9329,
1.3710,0.0060,0.0441,1.0191,-0.0122,0.0375,-0.0241,0.0041,-0.0006,0.0011,-0.1015,18.3843,-44.9329,
1.3860,0.0060,0.0441,1.0191,-0.0343,0.0358,-0.0019,0.0041,-0.0006,0.0011,-0.1015,18.3843,-44.9329,
1.3870,0.0101,0.0427,1.0218,-0.0343,0.0358,-0.0019,0.0041,-0.0006,0.0011,-0.1015,18.3843,-44.9329,
1.4170,0.0134,0.0377,1.0306,-0.0343,0.0358,-0.0019,0.0041,-0.0006,0.0011,-0.1015,18.3843,-44.9329,
1.4180,0.0134,0.0377,1.0306,-0.0343,0.0358,-0.0019,0.0041,-0.0006,0.0011,-0.1501,18.3928,-44.9084,
1.4190,0.0134,0.0377,1.0306,-0.0343,0.0358,-0.0019,-0.0060,0.0025,-0.0007,-0.1501,18.3928,-44.9084,
1.4370,0.0100,0.0357,1.0392,-0.0343,0.0358,-0.0019,-0.0060,0.0025,-0.0007,-0.1501,18.3928,-44.9084,
1.4640,0.0100,0.0357,1.0392,0.0104,0.0117,-0.0264,-0.0060,0.0025,-0.0007,-0.1501,18.3928,-44.9084,
1.4650,0.0100,0.0341,1.0450,0.0104,0.0117,-0.0264,-0.0060,0.0025,-0.0007,-0.1501,18.3928,-44.9084,
1.4660,0.0100,0.0341,1.0450,0.0104,0.0117,-0.0264,0.0301,0.0214,0.0024,-0.1501,18.3928,-44.9084,
1.4660,0.0126,0.0324,1.0396,0.0104,0.0117,-0.0264,0.0301,0.0214,0.0024,-0.1501,18.3928,-44.9084,
1.4820,0.0126,0.0324,1.0396,0.0104,0.0117,-0.0264,0.0838,0.0159,0.0097,-0.1501,18.3928,-44.9084,
1.4830,0.0136,0.0358,1.0148,0.0104,0.0117,-0.0264,0.0838,0.0159,0.0097,-0.1501,18.3928,-44.9084,
1.4840,0.0136,0.0358,1.0148,0.0104,0.0117,-0.0264,0.0838,0.0159,0.0097,-0.1147,18.3752,-44.8954,
1.5040,0.0118,0.0419,0.9975,0.0104,0.0117,-0.0264,0.0838,0.0159,0.0097,-0.1147,18.3752,-44.8954,
1.5220,0.0063,0.0458,0.9919,0.0104,0.0117,-0.0264,0.0838,0.0159,0.0097,-0.1147,18.3752,-44.8954,
1.5220,0.0063,0.0458,0.9919,0.0104,0.0117,-0.0264,0.0203,-0.0244,0.0014,-0.1147,18.3752,-44.8954,
1.5230,0.0063,0.0458,0.9919,0.0289,-0.0782,0.1327,0.0203,-0.0244,0.0014,-0.1147,18.3752,-44.8954,
1.5490,0.0077,0.0488,0.9931,0.0289,-0.0782,0.1327,0.0203,-0.0244,0.0014,-0.1147,18.3752,-44.8954,
1.5510,0.0077,0.0488,0.9931,0.0289,-0.0782,0.1327,0.0203,-0.0244,0.0014,-0.1164,18.3461,-44.8844,
1.5710,0.0071,0.0516,1.0102,0.0289,-0.0782,0.1327,0.0203,-0.0244,0.0014,-0.1164,18.3461,-44.8844,
1.5720,0.0071,0.0516,1.0102,0.0289,-0.0782,0.1327,-0.0844,-0.0122,0.0018,-0.1164,18.3461,-44.8844,
1.6000,0.0071,0.0516,1.0102,0.0289,-0.0782,0.1327,-0.0615,0.0125,-0.0025,-0.1164,18.3461,-44.8844,
1.6010,0.0059,0.0513,1.0424,0.0289,-0.0782,0.1327,-0.0615,0.0125,-0.0025,-0.1164,18.3461,-44.8844,
1.6010,0.0052,0.0488,1.0611,0.0289,-0.0782,0.1327,-0.0615,0.0125,-0.0025,-0.1164,18.3461,-44.8844,
1.6020,0.0052,0.0488,1.0611,0.0177,0.0434,-0.2341,-0.0615,0.0125,-0.0025,-0.1164,18.3461,-44.8844,
1.6160,0.0052,0.0488,1.0611,0.0177,0.0434,-0.2341,-0.0615,0.0125,-0.0025,-0.1539,18.3244,-44.8999,
1.6370,0.0059,0.0417,1.0506,0.0177,0.0434,-0.2341,-0.0615,0.0125,-0.0025,-0.1539,18.3244,-44.8999,
1.6580,0.0059,0.0417,1.0506,-0.0079,0.0713,0.0722,-0.0615,0.0125,-0.0025,-0.1539,18.3244,-44.8999,
1.6590,0.0059,0.0417,1.0506,-0.0079,0.0713,0.0722,0.0567,0.0220,-0.0001,-0.1539,18.3244,-44.8999,
1.6600,0.0054,0.0353,1.0384,-0.0079,0.0713,0.0722,0.0567,0.0220,-0.0001,-0.1539,18.3244,-44.8999,
1.6610,0.0050,0.0375,1.0328,-0.0079,0.0713,0.0722,0.0567,0.0220,-0.0001,-0.1539,18.3244,-44.8999,
1.6820,0.0050,0.0375,1.0328,-0.0079,0.0713,0.0722,0.0765,0.0113,0.0014,-0.1539,18.3244,-44.8999,
1.6830,0.0063,0.0421,1.0288,-0.0079,0.0713,0.0722,0.0765,0.0113,0.0014,-0.1539,18.3244,-44.8999,
1.6840,0.0063,0.0421,1.0288,-0.0079,0.0713,0.0722,0.0765,0.0113,0.0014,-0.1073,18.2878,-44.8877,
1.7040,0.0082,0.0460,1.0222,-0.0079,0.0713,0.0722,0.0765,0.0113,0.0014,-0.1073,18.2878,-44.8877,
1.7370,0.0082,0.0460,1.0222,-0.0079,0.0713,0.0722,0.0506,0.0113,-0.0004,-0.1073,18.2878,-44.8877,
1.7370,0.0082,0.0460,1.0222,-0.0077,-0.0672,0.1273,0.0506,0.0113,-0.0004,-0.1073,18.2878,-44.8877,
1.7380,0.0089,0.0483,1.0151,-0.0077,-0.0672,0.1273,0.0506,0.0113,-0.0004,-0.1073,18.2878,-44.8877,
1.7390,0.0100,0.0484,1.0122,-0.0077,-0.0672,0.1273,0.0506,0.0113,-0.0004,-0.1073,18.2878,-44.8877,
1.7500,0.0100,0.0484,1.0122,-0.0077,-0.0672,0.1273,0.0506,0.0113,-0.0004,-0.0596,18.2703,-44.8871,
1.7710,0.0100,0.0484,1.0122,-0.0077,-0.0672,0.1273,0.0044,0.0046,-0.0010,-0.0596,18.2703,-44.8871,
1.7720,0.0092,0.0473,1.0153,-0.0077,-0.0672,0.1273,0.0044,0.0046,-0.0010,-0.0596,18.2703,-44.8871,
1.7940,0.0090,0.0466,1.0180,-0.0077,-0.0672,0.1273,0.0044,0.0046,-0.0010,-0.0596,18.2703,-44.8871,
1.7950,0.0090,0.0466,1.0180,-0.0077,-0.0672,0.1273,-0.0102,0.0098,-0.0007,-0.0596,18.2703,-44.8871,
1.7960,0.0078,0.0474,1.0266,-0.0077,-0.0672,0.1273,-0.0102,0.0098,-0.0007,-0.0596,18.2703,-44.8871,
1.7960,0.0078,0.0474,1.0266,0.0265,0.0182,-0.0686,-0.0102,0.0098,-0.0007,-0.0596,18.2703,-44.8871,
1.8170,0.0078,0.0474,1.0266,0.0265,0.0182,-0.0686,-0.0102,0.0098,-0.0007,-0.0984,18.2077,-44.9566,
1.8180,0.0083,0.0480,1.0346,0.0265,0.0182,-0.0686,-0.0102,0.0098,-0.0007,-0.0984,18.2077,-44.9566,
1.8390,0.0078,0.0471,1.0313,0.0265,0.0182,-0.0686,-0.0102,0.0098,-0.0007,-0.0984,18.2077,-44.9566,
1.8400,0.0078,0.0471,1.0313,0.0265,0.0182,-0.0686,0.0182,0.0168,0.0033,-0.0984,18.2077,-44.9566,
1.8730,0.0059,0.0475,1.0218,0.0265,0.0182,-0.0686,0.0182,0.0168,0.0033,-0.0984,18.2077,-44.9566,
1.8740,0.0059,0.0475,1.0218,0.0253,0.0081,-0.0286,0.0182,0.0168,0.0033,-0.0984,18.2077,-44.9566,
1.8750,0.0059,0.0475,1.0218,0.0253,0.0081,-0.0286,0.0145,-0.0003,0.0051,-0.0984,18.2077,-44.9566,
1.8750,0.0038,0.0497,1.0239,0.0253,0.0081,-0.0286,0.0145,-0.0003,0.0051,-0.0984,18.2077,-44.9566,
1.8820,0.0038,0.0497,1.0239,0.0253,0.0081,-0.0286,0.0145,-0.0003,0.0051,-0.1003,18.1570,-45.0112,
1.9050,0.0048,0.0513,1.0279,0.0253,0.0081,-0.0286,0.0145,-0.0003,0.0051,-0.1003,18.1570,-45.0112,
1.9330,0.0054,0.0518,1.0280,0.0253,0.0081,-0.0286,0.0145,-0.0003,0.0051,-0.1003,18.1570,-45.0112,
1.9340,0.0056,0.0512,1.0289,0.0253,0.0081,-0.0286,0.0145,-0.0003,0.0051,-0.1003,18.1570,-45.0112,
1.9350,0.0056,0.0512,1.0289,0.0253,0.0081,-0.0286,0.0002,-0.0049,0.0036,-0.1003,18.1570,-45.0112,
1.9370,0.0056,0.0512,1.0289,0.0013,0.0119,0.0215,0.0002,-0.0049,0.0036,-0.1003,18.1570,-45.0112,
1.9500,0.0056,0.0512,1.0289,0.0013,0.0119,0.0215,0.0002,-0.0049,0.0036,-0.1043,18.0671,-45.0684,
1.9730,0.0062,0.0499,1.0268,0.0013,0.0119,0.0215,0.0002,-0.0049,0.0036,-0.1043,18.0671,-45.0684,
1.9730,0.0062,0.0499,1.0268,0.0013,0.0119,0.0215,0.0063,-0.0061,-0.0028,-0.1043,18.0671,-45.0684,
1.9740,0.0055,0.0484,1.0258,0.0013,0.0119,0.0215,0.0063,-0.0061,-0.0028,-0.1043,18.0671,-45.0684,
2.0100,0.0067,0.0484,1.0236,0.0013,0.0119,0.0215,0.0063,-0.0061,-0.0028,-0.1043,18.0671,-45.0684,
2.0110,0.0057,0.0500,1.0223,0.0013,0.0119,0.0215,0.0063,-0.0061,-0.0028,-0.1043,18.0671,-45.0684,
2.0120,0.0057,0.0500,1.0223,-0.0038,0.0295,0.0274,0.0063,-0.0061,-0.0028,-0.1043,18.0671,-45.0684,
2.0120,0.0057,0.0500,1.0223,-0.0038,0.0295,0.0274,0.0148,0.0037,-0.0022,-0.1043,18.0671,-45.0684,
2.0160,0.0057,0.0500,1.0223,-0.0038,0.0295,0.0274,0.0148,0.0037,-0.0022,-0.1323,17.9862,-45.1129,
2.0390,0.0057,0.0507,1.0230,-0.0038,0.0295,0.0274,0.0148,0.0037,-0.0022,-0.1323,17.9862,-45.1129,
2.0400,0.0057,0.0507,1.0230,-0.0038,0.0295,0.0274,0.0154,0.0150,0.0005,-0.1323,17.9862,-45.1129,
2.0690,0.0055,0.0512,1.0244,-0.0038,0.0295,0.0274,0.0154,0.0150,0.0005,-0.1323,17.9862,-45.1129,
2.0700,0.0055,0.0512,1.0244,-0.0038,0.0295,0.0274,0.0145,0.0141,0.0024,-0.1323,17.9862,-45.1129,
2.0700,0.0051,0.0504,1.0260,-0.0038,0.0295,0.0274,0.0145,0.0141,0.0024,-0.1323,17.9862,-45.1129,
2.0710,0.0051,0.0504,1.0260,0.0097,-0.0006,-0.0084,0.0145,0.0141,0.0024,-0.1323,17.9862,-45.1129,
2.0840,0.0051,0.0504,1.0260,0.0097,-0.0006,-0.0084,0.0145,0.0141,0.0024,-0.1218,17.9467,-45.1407,
2.1050,0.0070,0.0475,1.0273,0.0097,-0.0006,-0.0084,0.0145,0.0141,0.0024,-0.1218,17.9467,-45.1407,
2.1470,0.0084,0.0499,1.0274,0.0097,-0.0006,-0.0084,0.0145,0.0141,0.0024,-0.1218,17.9467,-45.1407,
2.1490,0.0096,0.0562,1.0310,0.0097,-0.0006,-0.0084,0.0145,0.0141,0.0024,-0.1218,17.9467,-45.1407,
2.1500,0.0096,0.0562,1.0310,0.0097,-0.0006,-0.0084,0.0069,0.0034,-0.0001,-0.1218,17.9467,-45.1407,
2.1500,0.0074,0.0578,1.0275,0.0097,-0.0006,-0.0084,0.0069,0.0034,-0.0001,-0.1218,17.9467,-45.1407,
2.1510,0.0074,0.0578,1.0275,0.0097,-0.0006,-0.0084,0.0124,0.0086,-0.0044,-0.1218,17.9467,-45.1407,
2.1510,0.0074,0.0578,1.0275,0.0089,0.0043,-0.0026,0.0124,0.0086,-0.0044,-0.1218,17.9467,-45.1407,
2.1520,0.0074,0.0578,1.0275,0.0089,0.0043,-0.0026,0.0124,0.0086,-0.0044,-0.1008,17.8786,-45.1570,
2.1720,0.0050,0.0562,1.0224,0.0089,0.0043,-0.0026,0.0124,0.0086,-0.0044,-0.1008,17.8786,-45.1570,
2.2050,0.0037,0.0510,1.0192,0.0089,0.0043,-0.0026,0.0124,0.0086,-0.0044,-0.1008,17.8786,-45.1570,
2.2050,0.0037,0.0510,1.0192,0.0089,0.0043,-0.0026,0.0160,0.0055,0.0060,-0.1008,17.8786,-45.1570,
2.2060,0.0037,0.0510,1.0192,0.0323,0.0266,0.0299,0.0160,0.0055,0.0060,-0.1008,17.8786,-45.1570,
2.2060,0.0029,0.0490,1.0207,0.0323,0.0266,0.0299,0.0160,0.0055,0.0060,-0.1008,17.8786,-45.1570,
2.2160,0.0029,0.0490,1.0207,0.0323,0.0266,0.0299,0.0160,0.0055,0.0060,-0.1387,17.8357,-45.2253,
2.2380,0.0029,0.0490,1.0207,0.0323,0.0266,0.0299,0.0005,-0.0070,0.0085,-0.1387,17.8357,-45.2253,
2.2390,0.0026,0.0501,1.0255,0.0323,0.0266,0.0299,0.0005,-0.0070,0.0085,-0.1387,17.8357,-45.2253,
2.2840,0.0032,0.0524,1.0316,0.0323,0.0266,0.0299,0.0005,-0.0070,0.0085,-0.1387,17.8357,-45.2253,
2.2850,0.0032,0.0524,1.0316,0.0323,0.0266,0.0299,0.0127,-0.0027,0.0002,-0.1387,17.8357,-45.2253,
2.2850,0.0032,0.0524,1.0316,0.0323,0.0266,0.0299,0.0127,-0.0027,0.0002,-0.1655,17.7852,-45.2422,
2.2860,0.0059,0.0559,1.0334,0.0323,0.0266,0.0299,0.0127,-0.0027,0.0002,-0.1655,17.7852,-45.2422,
2.2860,0.0077,0.0582,1.0324,0.0323,0.0266,0.0299,0.0127,-0.0027,0.0002,-0.1655,17.7852,-45.2422,
2.2870,0.0077,0.0582,1.0324,-0.0110,-0.0015,-0.0353,0.0127,-0.0027,0.0002,-0.1655,17.7852,-45.2422,
2.3040,0.0061,0.0570,1.0262,-0.0110,-0.0015,-0.0353,0.0127,-0.0027,0.0002,-0.1655,17.7852,-45.2422,
2.3040,0.0061,0.0570,1.0262,-0.0110,-0.0015,-0.0353,0.0310,0.0162,-0.0071,-0.1655,17.7852,-45.2422,
2.3410,0.0061,0.0570,1.0262,-0.0110,-0.0015,-0.0353,0.0029,0.0064,0.0039,-0.1655,17.7852,-45.2422,
2.3420,0.0034,0.0540,1.0157,-0.0110,-0.0015,-0.0353,0.0029,0.0064,0.0039,-0.1655,17.7852,-45.2422,
2.3420,0.0039,0.0518,1.0123,-0.0110,-0.0015,-0.0353,0.0029,0.0064,0.0039,-0.1655,17.7852,-45.2422,
2.3430,0.0039,0.0518,1.0123,0.0076,0.0184,0.0582,0.0029,0.0064,0.0039,-0.1655,17.7852,-45.2422,
2.3500,0.0039,0.0518,1.0123,0.0076,0.0184,0.0582,0.0029,0.0064,0.0039,-0.1220,17.6895,-45.2338,
2.3710,0.0059,0.0530,1.0168,0.0076,0.0184,0.0582,0.0029,0.0064,0.0039,-0.1220,17.6895,-45.2338,
2.4180,0.0033,0.0571,1.0249,0.0076,0.0184,0.0582,0.0029,0.0064,0.0039,-0.1220,17.6895,-45.2338,
2.4200,0.0033,0.0571,1.0249,0.0076,0.0184,0.0582,-0.0163,0.0077,0.0042,-0.1220,17.6895,-45.2338,
2.4210,0.0038,0.0579,1.0395,0.0076,0.0184,0.0582,-0.0163,0.0077,0.0042,-0.1220,17.6895,-45.2338,
2.4210,0.0038,0.0579,1.0395,0.0076,0.0184,0.0582,-0.0163,0.0077,0.0042,-0.1113,17.6496,-45.2744,
2.4220,0.0063,0.0528,1.0466,0.0076,0.0184,0.0582,-0.0163,0.0077,0.0042,-0.1113,17.6496,-45.2744,
2.4230,0.0063,0.0528,1.0466,0.0076,0.0184,0.0582,0.0331,0.0208,0.0036,-0.1113,17.6496,-45.2744,
2.4230,0.0063,0.0528,1.0466,0.0128,0.0024,-0.0692,0.0331,0.0208,0.0036,-0.1113,17.6496,-45.2744,
2.4790,0.0063,0.0528,1.0466,0.0128,0.0024,-0.0692,0.0619,-0.0140,-0.0028,-0.1113,17.6496,-45.2744,
2.4800,0.0088,0.0519,1.0288,0.0128,0.0024,-0.0692,0.0619,-0.0140,-0.0028,-0.1113,17.6496,-45.2744,
2.4810,0.0100,0.0565,1.0210,0.0128,0.0024,-0.0692,0.0619,-0.0140,-0.0028,-0.1113,17.6496,-45.2744,
2.4810,0.0041,0.0618,1.0030,0.0128,0.0024,-0.0692,0.0619,-0.0140,-0.0028,-0.1113,17.6496,-45.2744,
2.4830,0.0041,0.0618,1.0030,0.0023,-0.0056,0.0848,0.0619,-0.0140,-0.0028,-0.1113,17.6496,-45.2744,
2.4840,0.0041,0.0618,1.0030,0.0023,-0.0056,0.0848,0.0619,-0.0140,-0.0028,-0.0787,17.5723,-45.2909,
2.5060,0.0034,0.0610,0.9976,0.0023,-0.0056,0.0848,0.0619,-0.0140,-0.0028,-0.0787,17.5723,-45.2909,
2.5070,0.0034,0.0610,0.9976,0.0023,-0.0056,0.0848,-0.0081,-0.0152,-0.0019,-0.0787,17.5723,-45.2909,
2.5520,0.0034,0.0610,0.9976,0.0023,-0.0056,0.0848,-0.0618,0.0107,0.0033,-0.0787,17.5723,-45.2909,
2.5520,0.0034,0.0610,0.9976,0.0023,-0.0056,0.0848,-0.0618,0.0107,0.0033,-0.0443,17.5351,-45.2792,
2.5530,0.0029,0.0632,1.0174,0.0023,-0.0056,0.0848,-0.0618,0.0107,0.0033,-0.0443,17.5351,-45.2792,
2.5540,0.0018,0.0622,1.0450,0.0023,-0.0056,0.0848,-0.0618,0.0107,0.0033,-0.0443,17.5351,-45.2792,
2.5560,0.0018,0.0622,1.0450,0.0292,0.0347,-0.0995,-0.0618,0.0107,0.0033,-0.0443,17.5351,-45.2792,
2.5570,0.0021,0.0592,1.0501,0.0292,0.0347,-0.0995,-0.0618,0.0107,0.0033,-0.0443,17.5351,-45.2792,
2.6150,0.0021,0.0592,1.0501,0.0292,0.0347,-0.0995,0.0341,0.0266,-0.0001,-0.0443,17.5351,-45.2792,
2.6170,0.0037,0.0532,1.0385,0.0292,0.0347,-0.0995,0.0341,0.0266,-0.0001,-0.0443,17.5351,-45.2792,
2.6180,0.0038,0.0499,1.0288,0.0292,0.0347,-0.0995,0.0341,0.0266,-0.0001,-0.0443,17.5351,-45.2792,
2.6190,0.0019,0.0539,1.0192,0.0292,0.0347,-0.0995,0.0341,0.0266,-0.0001,-0.0443,17.5351,-45.2792,
2.6190,0.0019,0.0539,1.0192,0.0292,0.0347,-0.0995,0.0722,0.0165,0.0002,-0.0443,17.5351,-45.2792,
2.6200,0.0019,0.0539,1.0192,-0.0006,0.0241,0.0684,0.0722,0.0165,0.0002,-0.0443,17.5351,-45.2792,
2.6200,0.0019,0.0539,1.0192,-0.0006,0.0241,0.0684,0.0722,0.0165,0.0002,-0.0355,17.4554,-45.3352,
2.6370,0.0024,0.0593,1.0190,-0.0006,0.0241,0.0684,0.0722,0.0165,0.0002,-0.0355,17.4554,-45.3352,
2.6840,0.0021,0.0627,1.0208,-0.0006,0.0241,0.0684,0.0722,0.0165,0.0002,-0.0355,17.4554,-45.3352,
2.6850,0.0021,0.0627,1.0208,-0.0006,0.0241,0.0684,0.0722,0.0165,0.0002,0.0120,17.4163,-45.4002,
2.6860,0.0028,0.0637,1.0251,-0.0006,0.0241,0.0684,0.0722,0.0165,0.0002,0.0120,17.4163,-45.4002,
2.6870,0.0028,0.0637,1.0251,-0.0006,0.0241,0.0684,0.0447,0.0159,0.0045,0.0120,17.4163,-45.4002,
2.6930,0.0028,0.0637,1.0251,-0.0006,0.0241,0.0684,0.0139,0.0061,-0.0007,0.0120,17.4163,-45.4002,
2.6950,0.0038,0.0643,1.0284,-0.0006,0.0241,0.0684,0.0139,0.0061,-0.0007,0.0120,17.4163,-45.4002,
2.6960,0.0038,0.0643,1.0284,0.0098,-0.0648,0.0204,0.0139,0.0061,-0.0007,0.0120,17.4163,-45.4002,
2.7530,0.0038,0.0643,1.0284,0.0098,-0.0648,0.0204,0.0072,0.0028,-0.0059,0.0120,17.4163,-45.4002,
2.7540,0.0034,0.0653,1.0271,0.0098,-0.0648,0.0204,0.0072,0.0028,-0.0059,0.0120,17.4163,-45.4002,
2.7540,0.0038,0.0655,1.0230,0.0098,-0.0648,0.0204,0.0072,0.0028,-0.0059,0.0120,17.4163,-45.4002,
2.7550,0.0038,0.0655,1.0230,0.0098,-0.0648,0.0204,0.0072,0.0028,-0.0059,-0.0155,17.3563,-45.4049,
2.7560,0.0038,0.0655,1.0230,0.0126,0.0244,-0.0115,0.0072,0.0028,-0.0059,-0.0155,17.3563,-45.4049,
2.7560,0.0043,0.0655,1.0264,0.0126,0.0244,-0.0115,0.0072,0.0028,-0.0059,-0.0155,17.3563,-45.4049,
2.7710,0.0043,0.0655,1.0264,0.0126,0.0244,-0.0115,0.0087,0.0193,0.0002,-0.0155,17.3563,-45.4049,
2.7720,0.0054,0.0638,1.0302,0.0126,0.0244,-0.0115,0.0087,0.0193,0.0002,-0.0155,17.3563,-45.4049,
2.8170,0.0035,0.0626,1.0233,0.0126,0.0244,-0.0115,0.0087,0.0193,0.0002,-0.0155,17.3563,-45.4049,
2.8180,0.0035,0.0626,1.0233,0.0126,0.0244,-0.0115,0.0087,0.0193,0.0002,0.0048,17.2789,-45.4090,
2.8190,0.0035,0.0626,1.0233,0.0126,0.0244,-0.0115,0.0124,0.0135,0.0051,0.0048,17.2789,-45.4090,
2.8200,0.0002,0.0616,1.0179,0.0126,0.0244,-0.0115,0.0124,0.0135,0.0051,0.0048,17.2789,-45.4090,
2.8290,0.0002,0.0616,1.0179,0.0284,0.0361,0.0101,0.0124,0.0135,0.0051,0.0048,17.2789,-45.4090,
2.8300,-0.0015,0.0629,1.0221,0.0284,0.0361,0.0101,0.0124,0.0135,0.0051,0.0048,17.2789,-45.4090,
2.8850,-0.0009,0.0659,1.0256,0.0284,0.0361,0.0101,0.0124,0.0135,0.0051,0.0048,17.2789,-45.4090,
2.8860,-0.0009,0.0659,1.0256,0.0284,0.0361,0.0101,-0.0056,-0.0036,0.0073,0.0048,17.2789,-45.4090,
2.8880,-0.0012,0.0668,1.0296,0.0284,0.0361,0.0101,-0.0056,-0.0036,0.0073,0.0048,17.2789,-45.4090,
2.8880,-0.0012,0.0668,1.0296,0.0284,0.0361,0.0101,-0.0056,-0.0036,0.0073,-0.0452,17.2354,-45.4777,
2.8890,0.0009,0.0650,1.0293,0.0284,0.0361,0.0101,-0.0056,-0.0036,0.0073,-0.0452,17.2354,-45.4777,
2.8900,0.0009,0.0650,1.0293,0.0284,0.0361,0.0101,0.0087,-0.0079,0.0002,-0.0452,17.2354,-45.4777,
2.8910,0.0009,0.0650,1.0293,-0.0026,0.0043,-0.0257,0.0087,-0.0079,0.0002,-0.0452,17.2354,-45.4777,
2.9520,0.0009,0.0650,1.0293,-0.0026,0.0043,-0.0257,0.0209,-0.0039,-0.0044,-0.0452,17.2354,-45.4777,
2.9520,0.0009,0.0650,1.0293,-0.0026,0.0043,-0.0257,0.0209,-0.0039,-0.0044,-0.0960,17.1940,-45.4821,
2.9530,0.0015,0.0638,1.0263,-0.0026,0.0043,-0.0257,0.0209,-0.0039,-0.0044,-0.0960,17.1940,-45.4821,
2.9540,0.0024,0.0633,1.0221,-0.0026,0.0043,-0.0257,0.0209,-0.0039,-0.0044,-0.0960,17.1940,-45.4821,
2.9540,0.0019,0.0649,1.0212,-0.0026,0.0043,-0.0257,0.0209,-0.0039,-0.0044,-0.0960,17.1940,-45.4821,
2.9660,0.0009,0.0654,1.0222,-0.0026,0.0043,-0.0257,0.0209,-0.0039,-0.0044,-0.0960,17.1940,-45.4821,
2.9670,0.0009,0.0654,1.0222,-0.0026,0.0043,-0.0257,0.0133,0.0089,-0.0007,-0.0960,17.1940,-45.4821,
2.9670,0.0009,0.0654,1.0222,-0.0122,0.0200,0.0282,0.0133,0.0089,-0.0007,-0.0960,17.1940,-45.4821,
3.0170,0.0011,0.0661,1.0235,-0.0122,0.0200,0.0282,0.0133,0.0089,-0.0007,-0.0960,17.1940,-45.4821,
3.0170,0.0011,0.0661,1.0235,-0.0122,0.0200,0.0282,0.0099,0.0141,0.0021,-0.0960,17.1940,-45.4821,
3.0180,0.0019,0.0667,1.0240,-0.0122,0.0200,0.0282,0.0099,0.0141,0.0021,-0.0960,17.1940,-45.4821,
3.0190,0.0019,0.0667,1.0240,-0.0122,0.0200,0.0282,0.0099,0.0141,0.0021,-0.1084,17.1828,-45.5089,
3.0250,0.0017,0.0665,1.0240,-0.0122,0.0200,0.0282,0.0099,0.0141,0.0021,-0.1084,17.1828,-45.5089,
3.0260,0.0017,0.0665,1.0240,0.0106,0.0022,-0.0250,0.0099,0.0141,0.0021,-0.1084,17.1828,-45.5089,
3.0830,0.0017,0.0665,1.0240,0.0106,0.0022,-0.0250,0.0112,0.0077,-0.0001,-0.1084,17.1828,-45.5089,
3.0840,0.0019,0.0667,1.0246,0.0106,0.0022,-0.0250,0.0112,0.0077,-0.0001,-0.1084,17.1828,-45.5089,
3.0850,0.0022,0.0670,1.0245,0.0106,0.0022,-0.0250,0.0112,0.0077,-0.0001,-0.1084,17.1828,-45.5089,
3.0850,0.0017,0.0676,1.0234,0.0106,0.0022,-0.0250,0.0112,0.0077,-0.0001,-0.1084,17.1828,-45.5089,
3.0860,0.0017,0.0676,1.0234,0.0106,0.0022,-0.0250,0.0105,0.0012,-0.0004,-0.1084,17.1828,-45.5089,
3.0860,0.0017,0.0676,1.0234,0.0106,0.0022,-0.0250,0.0105,0.0012,-0.0004,-0.1974,17.1103,-45.5165,
3.1030,0.0017,0.0676,1.0234,0.0111,0.0130,-0.0075,0.0105,0.0012,-0.0004,-0.1974,17.1103,-45.5165,
3.1040,0.0015,0.0689,1.0236,0.0111,0.0130,-0.0075,0.0105,0.0012,-0.0004,-0.1974,17.1103,-45.5165,
3.1510,0.0015,0.0689,1.0236,0.0111,0.0130,-0.0075,0.0099,0.0046,0.0011,-0.1974,17.1103,-45.5165,
3.1530,0.0015,0.0689,1.0236,0.0111,0.0130,-0.0075,0.0099,0.0046,0.0011,-0.1752,17.0725,-45.5053,
3.1530,0.0002,0.0679,1.0241,0.0111,0.0130,-0.0075,0.0099,0.0046,0.0011,-0.1752,17.0725,-45.5053,
3.1540,0.0002,0.0677,1.0253,0.0111,0.0130,-0.0075,0.0099,0.0046,0.0011,-0.1752,17.0725,-45.5053,
3.1610,0.0007,0.0682,1.0250,0.0111,0.0130,-0.0075,0.0099,0.0046,0.0011,-0.1752,17.0725,-45.5053,
3.1620,0.0007,0.0682,1.0250,0.0149,0.0149,-0.0056,0.0099,0.0046,0.0011,-0.1752,17.0725,-45.5053,
3.1640,0.0007,0.0682,1.0250,0.0149,0.0149,-0.0056,0.0118,0.0064,0.0027,-0.1752,17.0725,-45.5053,
3.2170,0.0010,0.0681,1.0238,0.0149,0.0149,-0.0056,0.0118,0.0064,0.0027,-0.1752,17.0725,-45.5053,
3.2200,0.0010,0.0681,1.0238,0.0149,0.0149,-0.0056,0.0118,0.0064,0.0027,-0.1910,17.0032,-45.5101,
3.2210,0.0023,0.0672,1.0239,0.0149,0.0149,-0.0056,0.0118,0.0064,0.0027,-0.1910,17.0032,-45.5101,
3.2210,0.0023,0.0672,1.0239,0.0149,0.0149,-0.0056,0.0139,0.0034,-0.0001,-0.1910,17.0032,-45.5101,
3.2380,0.0033,0.0690,1.0235,0.0149,0.0149,-0.0056,0.0139,0.0034,-0.0001,-0.1910,17.0032,-45.5101,
3.2380,0.0004,0.0697,1.0213,0.0149,0.0149,-0.0056,0.0139,0.0034,-0.0001,-0.1910,17.0032,-45.5101,
3.2390,0.0004,0.0697,1.0213,0.0149,0.0149,-0.0056,0.0154,0.0058,-0.0019,-0.1910,17.0032,-45.5101,
3.2400,0.0004,0.0697,1.0213,0.0043,0.0054,0.0020,0.0154,0.0058,-0.0019,-0.1910,17.0032,-45.5101,
3.2840,0.0004,0.0697,1.0213,0.0043,0.0054,0.0020,0.0017,0.0064,0.0048,-0.1910,17.0032,-45.5101,
3.2850,-0.0028,0.0695,1.0147,0.0043,0.0054,0.0020,0.0017,0.0064,0.0048,-0.1910,17.0032,-45.5101,
3.2870,-0.0027,0.0689,1.0153,0.0043,0.0054,0.0020,0.0017,0.0064,0.0048,-0.1910,17.0032,-45.5101,
3.2870,-0.0027,0.0689,1.0153,0.0043,0.0054,0.0020,0.0017,0.0064,0.0048,-0.1571,16.9562,-45.4990,
3.2970,0.0006,0.0712,1.0223,0.0043,0.0054,0.0020,0.0017,0.0064,0.0048,-0.1571,16.9562,-45.4990,
3.2980,0.0006,0.0712,1.0223,0.0214,0.0140,-0.0135,0.0017,0.0064,0.0048,-0.1571,16.9562,-45.4990,
3.3500,0.0005,0.0723,1.0268,0.0214,0.0140,-0.0135,0.0017,0.0064,0.0048,-0.1571,16.9562,-45.4990,
3.3510,0.0005,0.0723,1.0268,0.0214,0.0140,-0.0135,0.0017,0.0064,0.0048,-0.1942,16.9337,-45.5403,
3.3540,0.0005,0.0723,1.0268,0.0214,0.0140,-0.0135,-0.0050,0.0132,0.0036,-0.1942,16.9337,-45.5403,
3.3540,-0.0011,0.0737,1.0335,0.0214,0.0140,-0.0135,-0.0050,0.0132,0.0036,-0.1942,16.9337,-45.5403,
3.3710,-0.0012,0.0697,1.0377,0.0214,0.0140,-0.0135,-0.0050,0.0132,0.0036,-0.1942,16.9337,-45.5403,
3.3730,-0.0012,0.0697,1.0377,0.0214,0.0140,-0.0135,0.0246,0.0165,0.0002,-0.1942,16.9337,-45.5403,
3.3760,0.0039,0.0664,1.0278,0.0214,0.0140,-0.0135,0.0246,0.0165,0.0002,-0.1942,16.9337,-45.5403,
3.3770,0.0039,0.0664,1.0278,-0.0017,0.0088,-0.0501,0.0246,0.0165,0.0002,-0.1942,16.9337,-45.5403,
3.4170,0.0039,0.0664,1.0278,-0.0017,0.0088,-0.0501,0.0393,-0.0140,-0.0001,-0.1942,16.9337,-45.5403,
3.4180,0.0062,0.0684,1.0189,-0.0017,0.0088,-0.0501,0.0393,-0.0140,-0.0001,-0.1942,16.9337,-45.5403,
3.4190,0.0017,0.0725,1.0057,-0.0017,0.0088,-0.0501,0.0393,-0.0140,-0.0001,-0.1942,16.9337,-45.5403,
3.4200,0.0017,0.0725,1.0057,-0.0017,0.0088,-0.0501,0.0393,-0.0140,-0.0001,-0.0982,16.9086,-45.5385,
3.4340,0.0017,0.0725,1.0057,0.0050,0.0094,0.0770,0.0393,-0.0140,-0.0001,-0.0982,16.9086,-45.5385,
3.4360,0.0017,0.0725,1.0057,0.0050,0.0094,0.0770,-0.0035,-0.0101,-0.0037,-0.0982,16.9086,-45.5385,
3.4360,-0.0007,0.0745,0.9937,0.0050,0.0094,0.0770,-0.0035,-0.0101,-0.0037,-0.0982,16.9086,-45.5385,
3.4850,-0.0007,0.0745,0.9937,0.0050,0.0094,0.0770,-0.0035,-0.0101,-0.0037,0.0446,16.8574,-45.4981,
3.4880,-0.0007,0.0745,0.9937,0.0050,0.0094,0.0770,-0.0628,0.0168,0.0024,0.0446,16.8574,-45.4981,
3.4900,-0.0004,0.0764,1.0054,0.0050,0.0094,0.0770,-0.0628,0.0168,0.0024,0.0446,16.8574,-45.4981,
3.4910,-0.0026,0.0780,1.0349,0.0050,0.0094,0.0770,-0.0628,0.0168,0.0024,0.0446,16.8574,-45.4981,
3.5040,-0.0015,0.0754,1.0487,0.0050,0.0094,0.0770,-0.0628,0.0168,0.0024,0.0446,16.8574,-45.4981,
3.5130,-0.0015,0.0754,1.0487,0.0050,0.0094,0.0770,0.0166,0.0364,-0.0016,0.0446,16.8574,-45.4981,
3.5150,-0.0005,0.0708,1.0420,0.0050,0.0094,0.0770,0.0166,0.0364,-0.0016,0.0446,16.8574,-45.4981,
3.5160,-0.0005,0.0708,1.0420,0.0383,0.0366,-0.1709,0.0166,0.0364,-0.0016,0.0446,16.8574,-45.4981,
3.5510,-0.0005,0.0708,1.0420,0.0383,0.0366,-0.1709,0.0166,0.0364,-0.0016,0.1394,16.8130,-45.4847,
3.5520,-0.0017,0.0644,1.0343,0.0383,0.0366,-0.1709,0.0166,0.0364,-0.0016,0.1394,16.8130,-45.4847,
3.5720,-0.0017,0.0644,1.0343,0.0153,0.0211,0.1342,0.0166,0.0364,-0.0016,0.1394,16.8130,-45.4847,
3.5740,-0.0017,0.0644,1.0343,0.0153,0.0211,0.1342,0.0655,0.0235,-0.0004,0.1394,16.8130,-45.4847,
3.5750,-0.0029,0.0647,1.0239,0.0153,0.0211,0.1342,0.0655,0.0235,-0.0004,0.1394,16.8130,-45.4847,
3.5760,-0.0051,0.0706,1.0163,0.0153,0.0211,0.1342,0.0655,0.0235,-0.0004,0.1394,16.8130,-45.4847,
3.6170,-0.0051,0.0706,1.0163,0.0153,0.0211,0.1342,0.0444,0.0168,0.0066,0.1394,16.8130,-45.4847,
3.6200,-0.0049,0.0747,1.0131,0.0153,0.0211,0.1342,0.0444,0.0168,0.0066,0.1394,16.8130,-45.4847,
3.6210,-0.0043,0.0767,1.0161,0.0153,0.0211,0.1342,0.0444,0.0168,0.0066,0.1394,16.8130,-45.4847,
3.6220,-0.0043,0.0767,1.0161,0.0153,0.0211,0.1342,0.0444,0.0168,0.0066,0.3318,16.7731,-45.4676,
3.6380,-0.0028,0.0767,1.0216,0.0153,0.0211,0.1342,0.0444,0.0168,0.0066,0.3318,16.7731,-45.4676,
3.6400,-0.0028,0.0767,1.0216,0.0153,0.0211,0.1342,0.0029,0.0107,0.0033,0.3318,16.7731,-45.4676,
3.6500,-0.0028,0.0767,1.0216,0.0012,-0.0498,-0.0063,0.0029,0.0107,0.0033,0.3318,16.7731,-45.4676,
3.6520,-0.0034,0.0760,1.0251,0.0012,-0.0498,-0.0063,0.0029,0.0107,0.0033,0.3318,16.7731,-45.4676,
3.6840,-0.0038,0.0753,1.0223,0.0012,-0.0498,-0.0063,0.0029,0.0107,0.0033,0.3318,16.7731,-45.4676,
3.6860,-0.0038,0.0753,1.0223,0.0012,-0.0498,-0.0063,0.0002,0.0046,-0.0019,0.3318,16.7731,-45.4676,
3.6860,-0.0038,0.0753,1.0223,0.0012,-0.0498,-0.0063,0.0002,0.0046,-0.0019,0.3535,16.7144,-45.4962,
3.7060,-0.0034,0.0753,1.0258,0.0012,-0.0498,-0.0063,0.0002,0.0046,-0.0019,0.3535,16.7144,-45.4962,
3.7070,-0.0028,0.0774,1.0312,0.0012,-0.0498,-0.0063,0.0002,0.0046,-0.0019,0.3535,16.7144,-45.4962,
3.7080,-0.0028,0.0774,1.0312,0.0012,-0.0498,-0.0063,0.0130,0.0156,0.0005,0.3535,16.7144,-45.4962,
3.7080,-0.0028,0.0774,1.0312,0.0080,0.0252,-0.0342,0.0130,0.0156,0.0005,0.3535,16.7144,-45.4962,
3.7500,-0.0018,0.0760,1.0272,0.0080,0.0252,-0.0342,0.0130,0.0156,0.0005,0.3535,16.7144,-45.4962,
3.7520,-0.0018,0.0760,1.0272,0.0080,0.0252,-0.0342,0.0209,0.0119,0.0002,0.3535,16.7144,-45.4962,
3.7520,-0.0040,0.0764,1.0181,0.0080,0.0252,-0.0342,0.0209,0.0119,0.0002,0.3535,16.7144,-45.4962,
3.7530,-0.0040,0.0764,1.0181,0.0080,0.0252,-0.0342,0.0209,0.0119,0.0002,0.3763,16.6971,-45.4579,
3.7720,-0.0046,0.0771,1.0185,0.0080,0.0252,-0.0342,0.0209,0.0119,0.0002,0.3763,16.6971,-45.4579,
3.7860,-0.0046,0.0771,1.0185,0.0142,0.0169,0.0311,0.0209,0.0119,0.0002,0.3763,16.6971,-45.4579,
3.7870,-0.0050,0.0788,1.0212,0.0142,0.0169,0.0311,0.0209,0.0119,0.0002,0.3763,16.6971,-45.4579,
3.7880,-0.0050,0.0788,1.0212,0.0142,0.0169,0.0311,-0.0081,-0.0006,0.0014,0.3763,16.6971,-45.4579,
3.8170,-0.0053,0.0783,1.0236,0.0142,0.0169,0.0311,-0.0081,-0.0006,0.0014,0.3763,16.6971,-45.4579,
3.8190,-0.0053,0.0783,1.0236,0.0142,0.0169,0.0311,-0.0081,-0.0006,0.0014,0.4596,16.6506,-45.4964,
3.8380,-0.0040,0.0780,1.0245,0.0142,0.0169,0.0311,-0.0081,-0.0006,0.0014,0.4596,16.6506,-45.4964,
3.8390,-0.0040,0.0780,1.0245,0.0142,0.0169,0.0311,-0.0023,-0.0006,0.0002,0.4596,16.6506,-45.4964,
3.8450,-0.0040,0.0780,1.0245,0.0023,0.0219,-0.0308,-0.0023,-0.0006,0.0002,0.4596,16.6506,-45.4964,
3.8460,-0.0027,0.0776,1.0264,0.0023,0.0219,-0.0308,-0.0023,-0.0006,0.0002,0.4596,16.6506,-45.4964,
3.8850,-0.0027,0.0776,1.0264,0.0023,0.0219,-0.0308,0.0182,-0.0024,-0.0013,0.4596,16.6506,-45.4964,
3.8860,-0.0034,0.0763,1.0268,0.0023,0.0219,-0.0308,0.0182,-0.0024,-0.0013,0.4596,16.6506,-45.4964,
3.8870,-0.0034,0.0763,1.0268,0.0023,0.0219,-0.0308,0.0182,-0.0024,-0.0013,0.5560,16.6247,-45.5204,
3.8870,-0.0048,0.0761,1.0249,0.0023,0.0219,-0.0308,0.0182,-0.0024,-0.0013,0.5560,16.6247,-45.5204,
3.9060,-0.0044,0.0770,1.0233,0.0023,0.0219,-0.0308,0.0182,-0.0024,-0.0013,0.5560,16.6247,-45.5204,
3.9070,-0.0044,0.0770,1.0233,0.0023,0.0219,-0.0308,0.0225,0.0009,-0.0001,0.5560,16.6247,-45.5204,
3.9230,-0.0044,0.0770,1.0233,0.0058,0.0130,0.0182,0.0225,0.0009,-0.0001,0.5560,16.6247,-45.5204,
3.9240,-0.0064,0.0782,1.0236,0.0058,0.0130,0.0182,0.0225,0.0009,-0.0001,0.5560,16.6247,-45.5204,
3.9500,-0.0042,0.0794,1.0250,0.0058,0.0130,0.0182,0.0225,0.0009,-0.0001,0.5560,16.6247,-45.5204,
3.9510,-0.0042,0.0794,1.0250,0.0058,0.0130,0.0182,0.0225,0.0009,-0.0001,0.5644,16.5569,-45.5115,
3.9520,-0.0042,0.0794,1.0250,0.0058,0.0130,0.0182,0.0063,0.0052,0.0002,0.5644,16.5569,-45.5115,
3.9710,-0.0044,0.0783,1.0240,0.0058,0.0130,0.0182,0.0063,0.0052,0.0002,0.5644,16.5569,-45.5115,
3.9820,-0.0044,0.0783,1.0240,-0.0022,0.0045,0.0074,0.0063,0.0052,0.0002,0.5644,16.5569,-45.5115,
3.9830,-0.0044,0.0783,1.0240,-0.0022,0.0045,0.0074,-0.0017,0.0028,-0.0019,0.5644,16.5569,-45.5115,
3.9830,-0.0040,0.0775,1.0218,-0.0022,0.0045,0.0074,-0.0017,0.0028,-0.0019,0.5644,16.5569,-45.5115,
4.0170,-0.0040,0.0775,1.0218,-0.0022,0.0045,0.0074,-0.0017,0.0028,-0.0019,0.5366,16.4867,-45.5296,
4.0180,-0.0046,0.0774,1.0191,-0.0022,0.0045,0.0074,-0.0017,0.0028,-0.0019,0.5366,16.4867,-45.5296,
4.0390,-0.0046,0.0774,1.0191,-0.0022,0.0045,0.0074,-0.0056,-0.0012,-0.0016,0.5366,16.4867,-45.5296,
4.0400,-0.0049,0.0772,1.0175,-0.0022,0.0045,0.0074,-0.0056,-0.0012,-0.0016,0.5366,16.4867,-45.5296,
4.0590,-0.0049,0.0772,1.0175,-0.0022,0.0045,0.0074,-0.0041,0.0012,0.0014,0.5366,16.4867,-45.5296,
4.0600,-0.0045,0.0771,1.0189,-0.0022,0.0045,0.0074,-0.0041,0.0012,0.0014,0.5366,16.4867,-45.5296,
4.0610,-0.0062,0.0796,1.0214,-0.0022,0.0045,0.0074,-0.0041,0.0012,0.0014,0.5366,16.4867,-45.5296,
4.0620,-0.0062,0.0796,1.0214,0.0056,0.0186,-0.0040,-0.0041,0.0012,0.0014,0.5366,16.4867,-45.5296,
4.0840,-0.0062,0.0796,1.0214,0.0056,0.0186,-0.0040,-0.0041,0.0012,0.0014,0.5450,16.4079,-45.5599,
4.0850,-0.0060,0.0811,1.0257,0.0056,0.0186,-0.0040,-0.0041,0.0012,0.0014,0.5450,16.4079,-45.5599,
4.1040,-0.0060,0.0811,1.0257,0.0056,0.0186,-0.0040,0.0026,0.0089,0.0018,0.5450,16.4079,-45.5599,
4.1050,-0.0068,0.0805,1.0271,0.0056,0.0186,-0.0040,0.0026,0.0089,0.0018,0.5450,16.4079,-45.5599,
4.1190,-0.0061,0.0807,1.0280,0.0056,0.0186,-0.0040,0.0026,0.0089,0.0018,0.5450,16.4079,-45.5599,
4.1200,-0.0061,0.0807,1.0280,-0.0006,0.0103,-0.0371,0.0026,0.0089,0.0018,0.5450,16.4079,-45.5599,
4.1510,-0.0061,0.0807,1.0280,-0.0006,0.0103,-0.0371,0.0090,0.0074,-0.0004,0.5450,16.4079,-45.5599,
4.1520,-0.0061,0.0807,1.0280,-0.0006,0.0103,-0.0371,0.0090,0.0074,-0.0004,0.4695,16.3551,-45.5787,
4.1530,-0.0031,0.0805,1.0282,-0.0006,0.0103,-0.0371,0.0090,0.0074,-0.0004,0.4695,16.3551,-45.5787,
4.1720,-0.0017,0.0792,1.0261,-0.0006,0.0103,-0.0371,0.0090,0.0074,-0.0004,0.4695,16.3551,-45.5787,
4.1970,-0.0017,0.0792,1.0261,-0.0006,0.0103,-0.0371,0.0121,0.0034,-0.0034,0.4695,16.3551,-45.5787,
4.1980,-0.0055,0.0789,1.0211,-0.0006,0.0103,-0.0371,0.0121,0.0034,-0.0034,0.4695,16.3551,-45.5787,
4.1990,-0.0087,0.0786,1.0128,-0.0006,0.0103,-0.0371,0.0121,0.0034,-0.0034,0.4695,16.3551,-45.5787,
4.2010,-0.0087,0.0786,1.0128,-0.0033,0.0291,0.0365,0.0121,0.0034,-0.0034,0.4695,16.3551,-45.5787,
4.2170,-0.0087,0.0786,1.0128,-0.0033,0.0291,0.0365,-0.0056,0.0064,0.0060,0.4695,16.3551,-45.5787,
4.2180,-0.0057,0.0789,1.0124,-0.0033,0.0291,0.0365,-0.0056,0.0064,0.0060,0.4695,16.3551,-45.5787,
4.2190,-0.0057,0.0789,1.0124,-0.0033,0.0291,0.0365,-0.0056,0.0064,0.0060,0.5662,16.3504,-45.5499,
4.2370,-0.0023,0.0808,1.0199,-0.0033,0.0291,0.0365,-0.0056,0.0064,0.0060,0.5662,16.3504,-45.5499,
4.2550,-0.0023,0.0808,1.0199,0.0176,0.0146,-0.0195,-0.0056,0.0064,0.0060,0.5662,16.3504,-45.5499,
4.2560,-0.0023,0.0808,1.0199,0.0176,0.0146,-0.0195,-0.0075,0.0232,0.0008,0.5662,16.3504,-45.5499,
4.2560,-0.0054,0.0847,1.0286,0.0176,0.0146,-0.0195,-0.0075,0.0232,0.0008,0.5662,16.3504,-45.5499,
4.2830,-0.0070,0.0831,1.0371,0.0176,0.0146,-0.0195,-0.0075,0.0232,0.0008,0.5662,16.3504,-45.5499,
4.2850,-0.0070,0.0831,1.0371,0.0176,0.0146,-0.0195,-0.0075,0.0232,0.0008,0.6264,16.3217,-45.6138,
4.3040,-0.0087,0.0782,1.0374,0.0176,0.0146,-0.0195,-0.0075,0.0232,0.0008,0.6264,16.3217,-45.6138,
4.3060,-0.0087,0.0782,1.0374,0.0176,0.0146,-0.0195,0.0273,0.0171,0.0014,0.6264,16.3217,-45.6138,
4.3320,-0.0023,0.0748,1.0258,0.0176,0.0146,-0.0195,0.0273,0.0171,0.0014,0.6264,16.3217,-45.6138,
4.3360,-0.0023,0.0748,1.0258,0.0176,0.0146,-0.0195,0.0301,-0.0204,0.0011,0.6264,16.3217,-45.6138,
4.3360,-0.0015,0.0771,1.0191,0.0176,0.0146,-0.0195,0.0301,-0.0204,0.0011,0.6264,16.3217,-45.6138,
4.3370,-0.0015,0.0771,1.0191,0.0135,0.0191,-0.0058,0.0301,-0.0204,0.0011,0.6264,16.3217,-45.6138,
4.3510,-0.0015,0.0771,1.0191,0.0135,0.0191,-0.0058,0.0301,-0.0204,0.0011,0.6127,16.2917,-45.6162,
4.3720,-0.0048,0.0804,1.0035,0.0135,0.0191,-0.0058,0.0301,-0.0204,0.0011,0.6127,16.2917,-45.6162,
4.3740,-0.0048,0.0804,1.0035,0.0135,0.0191,-0.0058,-0.0255,-0.0296,-0.0041,0.6127,16.2917,-45.6162,
4.3750,-0.0048,0.0821,0.9935,0.0135,0.0191,-0.0058,-0.0255,-0.0296,-0.0041,0.6127,16.2917,-45.6162,
4.3910,-0.0048,0.0821,0.9935,0.0007,0.0083,0.0526,-0.0255,-0.0296,-0.0041,0.6127,16.2917,-45.6162,
4.3930,-0.0068,0.0860,1.0111,0.0007,0.0083,0.0526,-0.0255,-0.0296,-0.0041,0.6127,16.2917,-45.6162,
4.4160,-0.0081,0.0869,1.0379,0.0007,0.0083,0.0526,-0.0255,-0.0296,-0.0041,0.6127,16.2917,-45.6162,
4.4180,-0.0081,0.0869,1.0379,0.0007,0.0083,0.0526,-0.0255,-0.0296,-0.0041,0.5509,16.2800,-45.5934,
4.4180,-0.0081,0.0869,1.0379,0.0007,0.0083,0.0526,-0.0780,-0.0021,0.0024,0.5509,16.2800,-45.5934,
4.4380,-0.0055,0.0842,1.0453,0.0007,0.0083,0.0526,-0.0780,-0.0021,0.0024,0.5509,16.2800,-45.5934,
4.4690,-0.0055,0.0842,1.0453,0.0002,0.0525,-0.1466,-0.0780,-0.0021,0.0024,0.5509,16.2800,-45.5934,
4.4710,-0.0051,0.0782,1.0390,0.0002,0.0525,-0.1466,-0.0780,-0.0021,0.0024,0.5509,16.2800,-45.5934,
4.4710,-0.0051,0.0782,1.0390,0.0002,0.0525,-0.1466,0.0105,0.0229,-0.0010,0.5509,16.2800,-45.5934,
4.4720,-0.0065,0.0723,1.0316,0.0002,0.0525,-0.1466,0.0105,0.0229,-0.0010,0.5509,16.2800,-45.5934,
4.4830,-0.0065,0.0723,1.0316,0.0002,0.0525,-0.1466,0.0105,0.0229,-0.0010,0.5739,16.2622,-45.5680,
4.5040,-0.0065,0.0723,1.0316,0.0002,0.0525,-0.1466,0.0542,0.0129,-0.0031,0.5739,16.2622,-45.5680,
4.5050,-0.0073,0.0733,1.0223,0.0002,0.0525,-0.1466,0.0542,0.0129,-0.0031,0.5739,16.2622,-45.5680,
4.5280,-0.0073,0.0733,1.0223,0.0002,0.0525,-0.1466,0.0331,0.0147,0.0018,0.5739,16.2622,-45.5680,
4.5290,-0.0073,0.0789,1.0161,0.0002,0.0525,-0.1466,0.0331,0.0147,0.0018,0.5739,16.2622,-45.5680,
4.5300,-0.0073,0.0821,1.0147,0.0002,0.0525,-0.1466,0.0331,0.0147,0.0018,0.5739,16.2622,-45.5680,
4.5300,-0.0073,0.0821,1.0147,0.0103,-0.0102,0.1530,0.0331,0.0147,0.0018,0.5739,16.2622,-45.5680,
4.5500,-0.0073,0.0821,1.0147,0.0103,-0.0102,0.1530,0.0331,0.0147,0.0018,0.6097,16.2438,-45.5807,
4.5520,-0.0056,0.0844,1.0186,0.0103,-0.0102,0.1530,0.0331,0.0147,0.0018,0.6097,16.2438,-45.5807,
4.5710,-0.0060,0.0847,1.0238,0.0103,-0.0102,0.1530,0.0331,0.0147,0.0018,0.6097,16.2438,-45.5807,
4.5720,-0.0060,0.0847,1.0238,0.0103,-0.0102,0.1530,-0.0011,0.0119,0.0021,0.6097,16.2438,-45.5807,
4.6080,-0.0053,0.0827,1.0230,0.0103,-0.0102,0.1530,-0.0011,0.0119,0.0021,0.6097,16.2438,-45.5807,
4.6090,-0.0053,0.0827,1.0230,0.0103,-0.0102,0.1530,0.0011,0.0074,-0.0010,0.6097,16.2438,-45.5807,
4.6100,-0.0043,0.0820,1.0233,0.0103,-0.0102,0.1530,0.0011,0.0074,-0.0010,0.6097,16.2438,-45.5807,
4.6100,-0.0043,0.0820,1.0233,0.0040,-0.0128,-0.0522,0.0011,0.0074,-0.0010,0.6097,16.2438,-45.5807,
4.6160,-0.0043,0.0820,1.0233,0.0040,-0.0128,-0.0522,0.0011,0.0074,-0.0010,0.6603,16.2636,-45.6420,
4.6380,-0.0071,0.0842,1.0295,0.0040,-0.0128,-0.0522,0.0011,0.0074,-0.0010,0.6603,16.2636,-45.6420,
4.6650,-0.0071,0.0842,1.0295,0.0040,-0.0128,-0.0522,0.0154,0.0162,0.0002,0.6603,16.2636,-45.6420,
4.6660,-0.0049,0.0841,1.0312,0.0040,-0.0128,-0.0522,0.0154,0.0162,0.0002,0.6603,16.2636,-45.6420,
4.6670,-0.0046,0.0819,1.0223,0.0040,-0.0128,-0.0522,0.0154,0.0162,0.0002,0.6603,16.2636,-45.6420,
4.6680,-0.0046,0.0819,1.0223,0.0260,0.0179,-0.0006,0.0154,0.0162,0.0002,0.6603,16.2636,-45.6420,
4.6840,-0.0046,0.0819,1.0223,0.0260,0.0179,-0.0006,0.0154,0.0162,0.0002,0.7338,16.2661,-45.6649,
4.7040,-0.0046,0.0819,1.0223,0.0260,0.0179,-0.0006,0.0121,0.0025,0.0005,0.7338,16.2661,-45.6649,
4.7050,-0.0082,0.0842,1.0167,0.0260,0.0179,-0.0006,0.0121,0.0025,0.0005,0.7338,16.2661,-45.6649,
4.7060,-0.0095,0.0844,1.0188,0.0260,0.0179,-0.0006,0.0121,0.0025,0.0005,0.7338,16.2661,-45.6649,
4.7430,-0.0095,0.0844,1.0188,0.0260,0.0179,-0.0006,-0.0090,-0.0033,0.0045,0.7338,16.2661,-45.6649,
4.7450,-0.0092,0.0850,1.0223,0.0260,0.0179,-0.0006,-0.0090,-0.0033,0.0045,0.7338,16.2661,-45.6649,
4.7450,-0.0090,0.0841,1.0250,0.0260,0.0179,-0.0006,-0.0090,-0.0033,0.0045,0.7338,16.2661,-45.6649,
4.7460,-0.0090,0.0841,1.0250,0.0155,0.0185,0.0287,-0.0090,-0.0033,0.0045,0.7338,16.2661,-45.6649,
4.7500,-0.0090,0.0841,1.0250,0.0155,0.0185,0.0287,-0.0090,-0.0033,0.0045,0.6967,16.2546,-45.6669,
4.7720,-0.0090,0.0841,1.0250,0.0155,0.0185,0.0287,0.0053,-0.0055,0.0030,0.6967,16.2546,-45.6669,
4.7730,-0.0068,0.0835,1.0256,0.0155,0.0185,0.0287,0.0053,-0.0055,0.0030,0.6967,16.2546,-45.6669,
4.8020,-0.0068,0.0835,1.0256,-0.0165,0.0171,-0.0181,0.0053,-0.0055,0.0030,0.6967,16.2546,-45.6669,
4.8030,-0.0065,0.0837,1.0274,-0.0165,0.0171,-0.0181,0.0053,-0.0055,0.0030,0.6967,16.2546,-45.6669,
4.8030,-0.0060,0.0843,1.0260,-0.0165,0.0171,-0.0181,0.0053,-0.0055,0.0030,0.6967,16.2546,-45.6669,
4.8040,-0.0060,0.0843,1.0260,-0.0165,0.0171,-0.0181,0.0203,-0.0012,-0.0022,0.6967,16.2546,-45.6669,
4.8160,-0.0060,0.0843,1.0260,-0.0165,0.0171,-0.0181,0.0203,-0.0012,-0.0022,0.6471,16.2434,-45.6437,
4.8370,-0.0075,0.0843,1.0236,-0.0165,0.0171,-0.0181,0.0203,-0.0012,-0.0022,0.6471,16.2434,-45.6437,
4.8790,-0.0075,0.0843,1.0236,-0.0165,0.0171,-0.0181,0.0127,0.0052,-0.0031,0.6471,16.2434,-45.6437,
4.8800,-0.0079,0.0854,1.0222,-0.0165,0.0171,-0.0181,0.0127,0.0052,-0.0031,0.6471,16.2434,-45.6437,
4.8810,-0.0079,0.0858,1.0222,-0.0165,0.0171,-0.0181,0.0127,0.0052,-0.0031,0.6471,16.2434,-45.6437,
4.8810,-0.0083,0.0838,1.0223,-0.0165,0.0171,-0.0181,0.0127,0.0052,-0.0031,0.6471,16.2434,-45.6437,
4.8820,-0.0083,0.0838,1.0223,-0.0165,0.0171,-0.0181,-0.0038,0.0074,0.0002,0.6471,16.2434,-45.6437,
4.8830,-0.0083,0.0838,1.0223,0.0118,0.0067,0.0276,-0.0038,0.0074,0.0002,0.6471,16.2434,-45.6437,
4.8830,-0.0083,0.0838,1.0223,0.0118,0.0067,0.0276,-0.0038,0.0074,0.0002,0.6834,16.2234,-45.7079,
4.9050,-0.0079,0.0838,1.0211,0.0118,0.0067,0.0276,-0.0038,0.0074,0.0002,0.6834,16.2234,-45.7079,
4.9380,-0.0079,0.0838,1.0211,-0.0019,0.0191,-0.0095,-0.0038,0.0074,0.0002,0.6834,16.2234,-45.7079,
4.9390,-0.0079,0.0838,1.0211,-0.0019,0.0191,-0.0095,-0.0075,-0.0006,0.0014,0.6834,16.2234,-45.7079,
4.9400,-0.0079,0.0843,1.0219,-0.0019,0.0191,-0.0095,-0.0075,-0.0006,0.0014,0.6834,16.2234,-45.7079,
4.9400,-0.0065,0.0841,1.0230,-0.0019,0.0191,-0.0095,-0.0075,-0.0006,0.0014,0.6834,16.2234,-45.7079,
4.9500,-0.0065,0.0841,1.0230,-0.0019,0.0191,-0.0095,-0.0075,-0.0006,0.0014,0.7178,16.1751,-45.7354,
4.9710,-0.0053,0.0850,1.0223,-0.0019,0.0191,-0.0095,-0.0075,-0.0006,0.0014,0.7178,16.1751,-45.7354,
4.9730,-0.0053,0.0850,1.0223,-0.0019,0.0191,-0.0095,-0.0001,-0.0027,0.0021,0.7178,16.1751,-45.7354,
5.0160,-0.0050,0.0865,1.0230,-0.0019,0.0191,-0.0095,-0.0001,-0.0027,0.0021,0.7178,16.1751,-45.7354,
5.0180,-0.0050,0.0865,1.0230,-0.0019,0.0191,-0.0095,0.0063,0.0058,0.0005,0.7178,16.1751,-45.7354,
5.0180,-0.0050,0.0865,1.0230,0.0083,0.0065,-0.0093,0.0063,0.0058,0.0005,0.7178,16.1751,-45.7354,
5.0190,-0.0065,0.0877,1.0233,0.0083,0.0065,-0.0093,0.0063,0.0058,0.0005,0.7178,16.1751,-45.7354,
5.0190,-0.0071,0.0874,1.0245,0.0083,0.0065,-0.0093,0.0063,0.0058,0.0005,0.7178,16.1751,-45.7354,
5.0200,-0.0071,0.0874,1.0245,0.0083,0.0065,-0.0093,0.0063,0.0058,0.0005,0.7421,16.1652,-45.7737,
5.0380,-0.0077,0.0871,1.0246,0.0083,0.0065,-0.0093,0.0063,0.0058,0.0005,0.7421,16.1652,-45.7737,
5.0400,-0.0077,0.0871,1.0246,0.0083,0.0065,-0.0093,0.0035,0.0083,0.0011,0.7421,16.1652,-45.7737,
5.0750,-0.0073,0.0861,1.0253,0.0083,0.0065,-0.0093,0.0035,0.0083,0.0011,0.7421,16.1652,-45.7737,
5.0770,-0.0062,0.0852,1.0238,0.0083,0.0065,-0.0093,0.0035,0.0083,0.0011,0.7421,16.1652,-45.7737,
5.0770,-0.0062,0.0852,1.0238,0.0083,0.0065,-0.0093,0.0017,0.0000,0.0011,0.7421,16.1652,-45.7737,
5.0780,-0.0062,0.0852,1.0238,0.0187,0.0285,0.0028,0.0017,0.0000,0.0011,0.7421,16.1652,-45.7737,
5.0830,-0.0062,0.0852,1.0238,0.0187,0.0285,0.0028,0.0017,0.0000,0.0011,0.7175,16.1425,-45.8402,
5.1040,-0.0062,0.0839,1.0224,0.0187,0.0285,0.0028,0.0017,0.0000,0.0011,0.7175,16.1425,-45.8402,
5.1520,-0.0062,0.0839,1.0224,0.0187,0.0285,0.0028,0.0053,0.0009,-0.0010,0.7175,16.1425,-45.8402,
5.1530,-0.0111,0.0850,1.0178,0.0187,0.0285,0.0028,0.0053,0.0009,-0.0010,0.7175,16.1425,-45.8402,
5.1540,-0.0103,0.0846,1.0133,0.0187,0.0285,0.0028,0.0053,0.0009,-0.0010,0.7175,16.1425,-45.8402,
5.1550,-0.0103,0.0846,1.0133,0.0187,0.0285,0.0028,0.0053,0.0009,-0.0010,0.6420,16.1118,-45.7805,
5.1560,-0.0066,0.0857,1.0190,0.0187,0.0285,0.0028,0.0053,0.0009,-0.0010,0.6420,16.1118,-45.7805,
5.1570,-0.0066,0.0857,1.0190,0.0187,0.0285,0.0028,-0.0053,0.0089,0.0048,0.6420,16.1118,-45.7805,
5.1570,-0.0066,0.0857,1.0190,0.0137,0.0163,0.0110,-0.0053,0.0089,0.0048,0.6420,16.1118,-45.7805,
5.1720,-0.0068,0.0886,1.0267,0.0137,0.0163,0.0110,-0.0053,0.0089,0.0048,0.6420,16.1118,-45.7805,
5.2120,-0.0068,0.0886,1.0267,0.0040,-0.0026,-0.0496,-0.0053,0.0089,0.0048,0.6420,16.1118,-45.7805,
5.2130,-0.0068,0.0886,1.0267,0.0040,-0.0026,-0.0496,0.0050,0.0251,-0.0001,0.6420,16.1118,-45.7805,
5.2130,-0.0099,0.0898,1.0332,0.0040,-0.0026,-0.0496,0.0050,0.0251,-0.0001,0.6420,16.1118,-45.7805,
5.2150,-0.0100,0.0871,1.0357,0.0040,-0.0026,-0.0496,0.0050,0.0251,-0.0001,0.6420,16.1118,-45.7805,
5.2170,-0.0100,0.0871,1.0357,0.0040,-0.0026,-0.0496,0.0050,0.0251,-0.0001,0.6168,16.1017,-45.7563,
5.2380,-0.0082,0.0830,1.0277,0.0040,-0.0026,-0.0496,0.0050,0.0251,-0.0001,0.6168,16.1017,-45.7563,
5.2400,-0.0082,0.0830,1.0277,0.0040,-0.0026,-0.0496,0.0280,0.0098,0.0036,0.6168,16.1017,-45.7563,
5.2840,-0.0082,0.0830,1.0277,0.0040,-0.0026,-0.0496,0.0121,-0.0204,-0.0031,0.6168,16.1017,-45.7563,
5.2860,-0.0028,0.0835,1.0214,0.0040,-0.0026,-0.0496,0.0121,-0.0204,-0.0031,0.6168,16.1017,-45.7563,
5.2860,-0.0046,0.0853,1.0114,0.0040,-0.0026,-0.0496,0.0121,-0.0204,-0.0031,0.6168,16.1017,-45.7563,
5.2880,-0.0046,0.0853,1.0114,0.0040,-0.0026,-0.0496,0.0121,-0.0204,-0.0031,0.6149,16.0510,-45.8109,
5.2890,-0.0049,0.0886,0.9922,0.0040,-0.0026,-0.0496,0.0121,-0.0204,-0.0031,0.6149,16.0510,-45.8109,
5.2890,-0.0049,0.0886,0.9922,-0.0076,0.0223,0.0806,0.0121,-0.0204,-0.0031,0.6149,16.0510,-45.8109,
5.3490,-0.0055,0.0905,0.9930,-0.0076,0.0223,0.0806,0.0121,-0.0204,-0.0031,0.6149,16.0510,-45.8109,
5.3510,-0.0055,0.0905,0.9930,-0.0076,0.0223,0.0806,-0.0512,-0.0253,-0.0041,0.6149,16.0510,-45.8109,
5.3520,-0.0055,0.0905,0.9930,-0.0076,0.0223,0.0806,-0.0628,0.0080,0.0042,0.6149,16.0510,-45.8109,
5.3520,-0.0121,0.0930,1.0234,-0.0076,0.0223,0.0806,-0.0628,0.0080,0.0042,0.6149,16.0510,-45.8109,
5.3530,-0.0097,0.0909,1.0466,-0.0076,0.0223,0.0806,-0.0628,0.0080,0.0042,0.6149,16.0510,-45.8109,
5.3530,-0.0097,0.0909,1.0466,0.0326,0.0289,-0.1147,-0.0628,0.0080,0.0042,0.6149,16.0510,-45.8109,
5.3540,-0.0097,0.0909,1.0466,0.0326,0.0289,-0.1147,-0.0628,0.0080,0.0042,0.6377,16.0226,-45.8119,
5.3710,-0.0095,0.0858,1.0446,0.0326,0.0289,-0.1147,-0.0628,0.0080,0.0042,0.6377,16.0226,-45.8119,
5.4160,-0.0095,0.0858,1.0446,0.0326,0.0289,-0.1147,0.0368,0.0150,-0.0001,0.6377,16.0226,-45.8119,
5.4170,-0.0095,0.0798,1.0339,0.0326,0.0289,-0.1147,0.0368,0.0150,-0.0001,0.6377,16.0226,-45.8119,
5.4180,-0.0094,0.0789,1.0234,0.0326,0.0289,-0.1147,0.0368,0.0150,-0.0001,0.6377,16.0226,-45.8119,
5.4180,-0.0094,0.0789,1.0234,0.0326,0.0289,-0.1147,0.0368,0.0150,-0.0001,0.6493,16.0137,-45.7992,
5.4250,-0.0094,0.0830,1.0145,0.0326,0.0289,-0.1147,0.0368,0.0150,-0.0001,0.6493,16.0137,-45.7992,
5.4260,-0.0094,0.0830,1.0145,0.0326,0.0289,-0.1147,0.0512,0.0055,-0.0022,0.6493,16.0137,-45.7992,
5.4270,-0.0094,0.0830,1.0145,-0.0053,0.0468,0.0224,0.0512,0.0055,-0.0022,0.6493,16.0137,-45.7992,
5.4860,-0.0094,0.0830,1.0145,-0.0053,0.0468,0.0224,0.0157,0.0113,0.0030,0.6493,16.0137,-45.7992,
5.4880,-0.0104,0.0876,1.0135,-0.0053,0.0468,0.0224,0.0157,0.0113,0.0030,0.6493,16.0137,-45.7992,
5.4890,-0.0092,0.0905,1.0166,-0.0053,0.0468,0.0224,0.0157,0.0113,0.0030,0.6493,16.0137,-45.7992,
5.4890,-0.0092,0.0905,1.0166,-0.0053,0.0468,0.0224,0.0157,0.0113,0.0030,0.6467,15.9757,-45.7631,
5.4900,-0.0071,0.0899,1.0206,-0.0053,0.0468,0.0224,0.0157,0.0113,0.0030,0.6467,15.9757,-45.7631,
5.4910,-0.0071,0.0899,1.0206,-0.0018,-0.0496,0.0374,0.0157,0.0113,0.0030,0.6467,15.9757,-45.7631,
5.5040,-0.0062,0.0890,1.0217,-0.0018,-0.0496,0.0374,0.0157,0.0113,0.0030,0.6467,15.9757,-45.7631,
5.5060,-0.0062,0.0890,1.0217,-0.0018,-0.0496,0.0374,-0.0020,0.0110,0.0008,0.6467,15.9757,-45.7631,
5.5500,-0.0066,0.0876,1.0216,-0.0018,-0.0496,0.0374,-0.0020,0.0110,0.0008,0.6467,15.9757,-45.7631,
5.5510,-0.0066,0.0876,1.0216,-0.0018,-0.0496,0.0374,0.0032,0.0098,-0.0019,0.6467,15.9757,-45.7631,
5.5510,-0.0073,0.0880,1.0229,-0.0018,-0.0496,0.0374,0.0032,0.0098,-0.0019,0.6467,15.9757,-45.7631,
5.5520,-0.0073,0.0880,1.0229,-0.0018,-0.0496,0.0374,0.0032,0.0098,-0.0019,0.6091,15.9654,-45.7265,
5.5640,-0.0073,0.0880,1.0229,0.0148,0.0252,-0.0449,0.0032,0.0098,-0.0019,0.6091,15.9654,-45.7265,
5.5650,-0.0075,0.0886,1.0288,0.0148,0.0252,-0.0449,0.0032,0.0098,-0.0019,0.6091,15.9654,-45.7265,
5.6170,-0.0075,0.0886,1.0288,0.0148,0.0252,-0.0449,0.0136,0.0119,0.0027,0.6091,15.9654,-45.7265,
5.6180,-0.0056,0.0885,1.0268,0.0148,0.0252,-0.0449,0.0136,0.0119,0.0027,0.6091,15.9654,-45.7265,
5.6190,-0.0075,0.0890,1.0189,0.0148,0.0252,-0.0449,0.0136,0.0119,0.0027,0.6091,15.9654,-45.7265,
5.6190,-0.0075,0.0890,1.0189,0.0148,0.0252,-0.0449,0.0136,0.0119,0.0027,0.5709,15.9458,-45.6777,
5.6200,-0.0100,0.0905,1.0173,0.0148,0.0252,-0.0449,0.0136,0.0119,0.0027,0.5709,15.9458,-45.6777,
5.6210,-0.0100,0.0905,1.0173,0.0246,0.0087,0.0161,0.0136,0.0119,0.0027,0.5709,15.9458,-45.6777,
5.6210,-0.0100,0.0905,1.0173,0.0246,0.0087,0.0161,0.0047,-0.0039,0.0014,0.5709,15.9458,-45.6777,
5.6860,-0.0100,0.0905,1.0173,0.0246,0.0087,0.0161,-0.0044,-0.0012,0.0027,0.5709,15.9458,-45.6777,
5.6870,-0.0100,0.0905,1.0173,0.0246,0.0087,0.0161,-0.0044,-0.0012,0.0027,0.5451,15.9038,-45.7326,
5.6890,-0.0095,0.0918,1.0205,0.0246,0.0087,0.0161,-0.0044,-0.0012,0.0027,0.5451,15.9038,-45.7326,
5.6890,-0.0108,0.0923,1.0210,0.0246,0.0087,0.0161,-0.0044,-0.0012,0.0027,0.5451,15.9038,-45.7326,
5.6910,-0.0098,0.0908,1.0217,0.0246,0.0087,0.0161,-0.0044,-0.0012,0.0027,0.5451,15.9038,-45.7326,
5.6980,-0.0098,0.0908,1.0217,0.0246,0.0087,0.0161,0.0047,-0.0027,0.0005,0.5451,15.9038,-45.7326,
5.7000,-0.0086,0.0893,1.0229,0.0246,0.0087,0.0161,0.0047,-0.0027,0.0005,0.5451,15.9038,-45.7326,
5.7000,-0.0086,0.0893,1.0229,0.0129,0.0206,-0.0124,0.0047,-0.0027,0.0005,0.5451,15.9038,-45.7326,
5.7530,-0.0086,0.0893,1.0229,0.0129,0.0206,-0.0124,0.0105,-0.0042,-0.0019,0.5451,15.9038,-45.7326,
5.7550,-0.0083,0.0891,1.0247,0.0129,0.0206,-0.0124,0.0105,-0.0042,-0.0019,0.5451,15.9038,-45.7326,
5.7560,-0.0083,0.0891,1.0247,0.0129,0.0206,-0.0124,0.0105,-0.0042,-0.0019,0.4956,15.8812,-45.7614,
5.7560,-0.0090,0.0888,1.0221,0.0129,0.0206,-0.0124,0.0105,-0.0042,-0.0019,0.4956,15.8812,-45.7614,
5.7570,-0.0097,0.0894,1.0205,0.0129,0.0206,-0.0124,0.0105,-0.0042,-0.0019,0.4956,15.8812,-45.7614,
5.7580,-0.0097,0.0894,1.0205,-0.0035,0.0225,-0.0042,0.0105,-0.0042,-0.0019,0.4956,15.8812,-45.7614,
5.8190,-0.0097,0.0894,1.0205,-0.0035,0.0225,-0.0042,0.0044,0.0046,-0.0004,0.4956,15.8812,-45.7614,
5.8210,-0.0103,0.0894,1.0214,-0.0035,0.0225,-0.0042,0.0044,0.0046,-0.0004,0.4956,15.8812,-45.7614,
5.8220,-0.0110,0.0898,1.0222,-0.0035,0.0225,-0.0042,0.0044,0.0046,-0.0004,0.4956,15.8812,-45.7614,
5.8220,-0.0110,0.0898,1.0222,-0.0035,0.0225,-0.0042,-0.0032,0.0089,0.0011,0.4956,15.8812,-45.7614,
5.8230,-0.0109,0.0890,1.0217,-0.0035,0.0225,-0.0042,-0.0032,0.0089,0.0011,0.4956,15.8812,-45.7614,
5.8230,-0.0109,0.0890,1.0217,-0.0035,0.0225,-0.0042,-0.0032,0.0089,0.0011,0.4218,15.8685,-45.7520,
5.8350,-0.0109,0.0890,1.0217,0.0052,0.0081,0.0022,-0.0032,0.0089,0.0011,0.4218,15.8685,-45.7520,
5.8370,-0.0099,0.0882,1.0208,0.0052,0.0081,0.0022,-0.0032,0.0089,0.0011,0.4218,15.8685,-45.7520,
5.8840,-0.0084,0.0882,1.0197,0.0052,0.0081,0.0022,-0.0032,0.0089,0.0011,0.4218,15.8685,-45.7520,
5.8850,-0.0078,0.0888,1.0203,0.0052,0.0081,0.0022,-0.0032,0.0089,0.0011,0.4218,15.8685,-45.7520,
5.8860,-0.0078,0.0888,1.0203,0.0052,0.0081,0.0022,-0.0050,0.0006,-0.0007,0.4218,15.8685,-45.7520,
5.8870,-0.0078,0.0888,1.0203,0.0052,0.0081,0.0022,-0.0050,0.0006,-0.0007,0.3963,15.8478,-45.7541,
5.8940,-0.0076,0.0908,1.0221,0.0052,0.0081,0.0022,-0.0050,0.0006,-0.0007,0.3963,15.8478,-45.7541,
5.8950,-0.0076,0.0908,1.0221,0.0052,0.0081,0.0022,-0.0001,-0.0003,-0.0013,0.3963,15.8478,-45.7541,
5.8950,-0.0076,0.0908,1.0221,-0.0071,0.0057,-0.0057,-0.0001,-0.0003,-0.0013,0.3963,15.8478,-45.7541,
5.9510,-0.0076,0.0908,1.0221,-0.0071,0.0057,-0.0057,0.0020,0.0077,0.0002,0.3963,15.8478,-45.7541,
5.9530,-0.0076,0.0908,1.0221,-0.0071,0.0057,-0.0057,0.0020,0.0077,0.0002,0.3118,15.8640,-45.7432,
5.9540,-0.0078,0.0912,1.0219,-0.0071,0.0057,-0.0057,0.0020,0.0077,0.0002,0.3118,15.8640,-45.7432,
5.9540,-0.0086,0.0923,1.0223,-0.0071,0.0057,-0.0057,0.0020,0.0077,0.0002,0.3118,15.8640,-45.7432,
5.9720,-0.0084,0.0930,1.0222,-0.0071,0.0057,-0.0057,0.0020,0.0077,0.0002,0.3118,15.8640,-45.7432,
5.9740,-0.0084,0.0930,1.0222,-0.0071,0.0057,-0.0057,-0.0005,0.0083,0.0011,0.3118,15.8640,-45.7432,
5.9740,-0.0084,0.0930,1.0222,0.0228,0.0094,-0.0108,-0.0005,0.0083,0.0011,0.3118,15.8640,-45.7432,
5.9750,-0.0084,0.0909,1.0238,0.0228,0.0094,-0.0108,-0.0005,0.0083,0.0011,0.3118,15.8640,-45.7432,
6.0160,-0.0086,0.0902,1.0247,0.0228,0.0094,-0.0108,-0.0005,0.0083,0.0011,0.3118,15.8640,-45.7432,
6.0180,-0.0083,0.0901,1.0232,0.0228,0.0094,-0.0108,-0.0005,0.0083,0.0011,0.3118,15.8640,-45.7432,
6.0180,-0.0083,0.0901,1.0232,0.0228,0.0094,-0.0108,-0.0005,0.0083,0.0011,0.2639,15.8598,-45.8094,
6.0190,-0.0083,0.0901,1.0232,0.0228,0.0094,-0.0108,0.0014,0.0000,-0.0004,0.2639,15.8598,-45.8094,
6.0300,-0.0083,0.0901,1.0232,0.0136,0.0280,0.0070,0.0014,0.0000,-0.0004,0.2639,15.8598,-45.8094,
6.0310,-0.0127,0.0899,1.0183,0.0136,0.0280,0.0070,0.0014,0.0000,-0.0004,0.2639,15.8598,-45.8094,
6.0840,-0.0128,0.0899,1.0136,0.0136,0.0280,0.0070,0.0014,0.0000,-0.0004,0.2639,15.8598,-45.8094,
6.0860,-0.0081,0.0897,1.0161,0.0136,0.0280,0.0070,0.0014,0.0000,-0.0004,0.2639,15.8598,-45.8094,
6.0860,-0.0081,0.0897,1.0161,0.0136,0.0280,0.0070,0.0014,0.0000,-0.0004,0.3023,15.8791,-45.8711,
6.0870,-0.0081,0.0897,1.0161,0.0136,0.0280,0.0070,0.0023,-0.0003,0.0021,0.3023,15.8791,-45.8711,
6.1040,-0.0083,0.0925,1.0241,0.0136,0.0280,0.0070,0.0023,-0.0003,0.0021,0.3023,15.8791,-45.8711,
6.1050,-0.0083,0.0925,1.0241,0.0136,0.0280,0.0070,-0.0047,0.0129,0.0021,0.3023,15.8791,-45.8711,
6.1080,-0.0116,0.0948,1.0280,0.0136,0.0280,0.0070,-0.0047,0.0129,0.0021,0.3023,15.8791,-45.8711,
6.1090,-0.0116,0.0948,1.0280,0.0033,0.0090,-0.0096,-0.0047,0.0129,0.0021,0.3023,15.8791,-45.8711,
6.1500,-0.0116,0.0948,1.0280,0.0033,0.0090,-0.0096,0.0133,0.0180,0.0008,0.3023,15.8791,-45.8711,
6.1520,-0.0116,0.0923,1.0312,0.0033,0.0090,-0.0096,0.0133,0.0180,0.0008,0.3023,15.8791,-45.8711,
6.1520,-0.0112,0.0869,1.0291,0.0033,0.0090,-0.0096,0.0133,0.0180,0.0008,0.3023,15.8791,-45.8711,
6.1530,-0.0112,0.0869,1.0291,0.0033,0.0090,-0.0096,0.0133,0.0180,0.0008,0.3260,15.8708,-45.8579,
6.1680,-0.0040,0.0866,1.0205,0.0033,0.0090,-0.0096,0.0133,0.0180,0.0008,0.3260,15.8708,-45.8579,
6.1690,-0.0040,0.0866,1.0205,0.0033,0.0090,-0.0096,0.0212,-0.0107,0.0048,0.3260,15.8708,-45.8579,
6.1700,-0.0040,0.0866,1.0205,0.0066,0.0131,-0.0030,0.0212,-0.0107,0.0048,0.3260,15.8708,-45.8579,
6.2170,-0.0040,0.0866,1.0205,0.0066,0.0131,-0.0030,0.0212,-0.0107,0.0048,0.3870,15.8845,-45.8164,
6.2200,-0.0040,0.0866,1.0205,0.0066,0.0131,-0.0030,-0.0075,-0.0290,-0.0065,0.3870,15.8845,-45.8164,
6.2210,-0.0062,0.0901,1.0137,0.0066,0.0131,-0.0030,-0.0075,-0.0290,-0.0065,0.3870,15.8845,-45.8164,
6.2210,-0.0070,0.0929,1.0001,0.0066,0.0131,-0.0030,-0.0075,-0.0290,-0.0065,0.3870,15.8845,-45.8164,
6.2380,-0.0064,0.0947,0.9936,0.0066,0.0131,-0.0030,-0.0075,-0.0290,-0.0065,0.3870,15.8845,-45.8164,
6.2440,-0.0114,0.0971,1.0205,0.0066,0.0131,-0.0030,-0.0075,-0.0290,-0.0065,0.3870,15.8845,-45.8164,
6.2450,-0.0114,0.0971,1.0205,0.0066,0.0131,-0.0030,-0.0741,-0.0125,-0.0025,0.3870,15.8845,-45.8164,
6.2460,-0.0114,0.0971,1.0205,0.0038,0.0131,0.0297,-0.0741,-0.0125,-0.0025,0.3870,15.8845,-45.8164,
6.2840,-0.0099,0.0958,1.0438,0.0038,0.0131,0.0297,-0.0741,-0.0125,-0.0025,0.3870,15.8845,-45.8164,
6.2860,-0.0099,0.0958,1.0438,0.0038,0.0131,0.0297,-0.0741,-0.0125,-0.0025,0.4358,15.8867,-45.8146,
6.3050,-0.0099,0.0958,1.0438,0.0153,0.0535,-0.1455,-0.0741,-0.0125,-0.0025,0.4358,15.8867,-45.8146,
6.3070,-0.0084,0.0916,1.0428,0.0153,0.0535,-0.1455,-0.0741,-0.0125,-0.0025,0.4358,15.8867,-45.8146,
6.3080,-0.0087,0.0857,1.0340,0.0153,0.0535,-0.1455,-0.0741,-0.0125,-0.0025,0.4358,15.8867,-45.8146,
6.3090,-0.0087,0.0857,1.0340,0.0153,0.0535,-0.1455,-0.0163,0.0180,0.0005,0.4358,15.8867,-45.8146,
6.3500,-0.0083,0.0830,1.0227,0.0153,0.0535,-0.1455,-0.0163,0.0180,0.0005,0.4358,15.8867,-45.8146,
6.3520,-0.0083,0.0830,1.0227,0.0153,0.0535,-0.1455,0.0432,0.0031,-0.0041,0.4358,15.8867,-45.8146,
6.3520,-0.0083,0.0830,1.0227,0.0153,0.0535,-0.1455,0.0432,0.0031,-0.0041,0.4226,15.8665,-45.8163,
6.3530,-0.0093,0.0847,1.0156,0.0153,0.0535,-0.1455,0.0432,0.0031,-0.0041,0.4226,15.8665,-45.8163,
6.3710,-0.0116,0.0905,1.0135,0.0153,0.0535,-0.1455,0.0432,0.0031,-0.0041,0.4226,15.8665,-45.8163,
6.3730,-0.0116,0.0905,1.0135,0.0153,0.0535,-0.1455,0.0264,0.0080,0.0011,0.4226,15.8665,-45.8163,
6.3820,-0.0116,0.0905,1.0135,0.0112,-0.0045,0.1546,0.0264,0.0080,0.0011,0.4226,15.8665,-45.8163,
6.3830,-0.0119,0.0938,1.0168,0.0112,-0.0045,0.1546,0.0264,0.0080,0.0011,0.4226,15.8665,-45.8163,
6.4170,-0.0093,0.0935,1.0228,0.0112,-0.0045,0.1546,0.0264,0.0080,0.0011,0.4226,15.8665,-45.8163,
6.4190,-0.0093,0.0935,1.0228,0.0112,-0.0045,0.1546,0.0264,0.0080,0.0011,0.4337,15.8474,-45.8171,
6.4200,-0.0093,0.0935,1.0228,0.0112,-0.0045,0.1546,-0.0017,0.0107,0.0060,0.4337,15.8474,-45.8171,
6.4380,-0.0089,0.0925,1.0261,0.0112,-0.0045,0.1546,-0.0017,0.0107,0.0060,0.4337,15.8474,-45.8171,
6.4400,-0.0092,0.0908,1.0239,0.0112,-0.0045,0.1546,-0.0017,0.0107,0.0060,0.4337,15.8474,-45.8171,
6.4410,-0.0092,0.0908,1.0239,-0.0009,-0.0135,-0.0551,-0.0017,0.0107,0.0060,0.4337,15.8474,-45.8171,
6.4410,-0.0092,0.0908,1.0239,-0.0009,-0.0135,-0.0551,0.0044,0.0080,-0.0010,0.4337,15.8474,-45.8171,
6.4840,-0.0088,0.0915,1.0225,-0.0009,-0.0135,-0.0551,0.0044,0.0080,-0.0010,0.4337,15.8474,-45.8171,
6.4850,-0.0088,0.0915,1.0225,-0.0009,-0.0135,-0.0551,0.0084,0.0119,-0.0016,0.4337,15.8474,-45.8171,
6.4850,-0.0093,0.0923,1.0268,-0.0009,-0.0135,-0.0551,0.0084,0.0119,-0.0016,0.4337,15.8474,-45.8171,
6.4860,-0.0093,0.0923,1.0268,-0.0009,-0.0135,-0.0551,0.0084,0.0119,-0.0016,0.4673,15.8011,-45.7803,
6.5050,-0.0070,0.0925,1.0275,-0.0009,-0.0135,-0.0551,0.0084,0.0119,-0.0016,0.4673,15.8011,-45.7803,
6.5220,-0.0093,0.0927,1.0200,-0.0009,-0.0135,-0.0551,0.0084,0.0119,-0.0016,0.4673,15.8011,-45.7803,
6.5230,-0.0093,0.0927,1.0200,-0.0009,-0.0135,-0.0551,0.0099,0.0080,0.0008,0.4673,15.8011,-45.7803,
6.5240,-0.0093,0.0927,1.0200,0.0185,0.0122,0.0200,0.0099,0.0080,0.0008,0.4673,15.8011,-45.7803,
6.5510,-0.0117,0.0947,1.0169,0.0185,0.0122,0.0200,0.0099,0.0080,0.0008,0.4673,15.8011,-45.7803,
6.5520,-0.0117,0.0947,1.0169,0.0185,0.0122,0.0200,0.0099,0.0080,0.0008,0.5533,15.8144,-45.7893,
6.5710,-0.0117,0.0947,1.0169,0.0185,0.0122,0.0200,-0.0069,0.0016,0.0027,0.5533,15.8144,-45.7893,
6.5730,-0.0108,0.0947,1.0205,0.0185,0.0122,0.0200,-0.0069,0.0016,0.0027,0.5533,15.8144,-45.7893,
6.5770,-0.0108,0.0947,1.0205,0.0242,0.0134,0.0248,-0.0069,0.0016,0.0027,0.5533,15.8144,-45.7893,
6.5780,-0.0116,0.0949,1.0221,0.0242,0.0134,0.0248,-0.0069,0.0016,0.0027,0.5533,15.8144,-45.7893,
6.6170,-0.0116,0.0949,1.0221,0.0242,0.0134,0.0248,0.0005,0.0052,0.0024,0.5533,15.8144,-45.7893,
6.6180,-0.0100,0.0934,1.0233,0.0242,0.0134,0.0248,0.0005,0.0052,0.0024,0.5533,15.8144,-45.7893,
6.6180,-0.0086,0.0924,1.0230,0.0242,0.0134,0.0248,0.0005,0.0052,0.0024,0.5533,15.8144,-45.7893,
6.6190,-0.0086,0.0924,1.0230,0.0242,0.0134,0.0248,0.0005,0.0052,0.0024,0.4895,15.7634,-45.7690,
6.6380,-0.0086,0.0924,1.0230,0.0242,0.0134,0.0248,0.0105,-0.0036,-0.0016,0.4895,15.7634,-45.7690,
6.6400,-0.0092,0.0924,1.0244,0.0242,0.0134,0.0248,0.0105,-0.0036,-0.0016,0.4895,15.7634,-45.7690,
6.6560,-0.0092,0.0924,1.0244,-0.0045,0.0264,-0.0151,0.0105,-0.0036,-0.0016,0.4895,15.7634,-45.7690,
6.6570,-0.0106,0.0931,1.0229,-0.0045,0.0264,-0.0151,0.0105,-0.0036,-0.0016,0.4895,15.7634,-45.7690,
6.6830,-0.0106,0.0931,1.0229,-0.0045,0.0264,-0.0151,0.0075,-0.0024,-0.0010,0.4895,15.7634,-45.7690,
6.6840,-0.0099,0.0931,1.0216,-0.0045,0.0264,-0.0151,0.0075,-0.0024,-0.0010,0.4895,15.7634,-45.7690,
6.6840,-0.0099,0.0931,1.0216,-0.0045,0.0264,-0.0151,0.0075,-0.0024,-0.0010,0.5379,15.7443,-45.8199,
6.7040,-0.0108,0.0938,1.0221,-0.0045,0.0264,-0.0151,0.0075,-0.0024,-0.0010,0.5379,15.7443,-45.8199,
6.7130,-0.0108,0.0938,1.0221,0.0150,0.0081,0.0132,0.0075,-0.0024,-0.0010,0.5379,15.7443,-45.8199,
6.7150,-0.0112,0.0930,1.0218,0.0150,0.0081,0.0132,0.0075,-0.0024,-0.0010,0.5379,15.7443,-45.8199,
6.7150,-0.0112,0.0930,1.0218,0.0150,0.0081,0.0132,-0.0041,0.0061,0.0002,0.5379,15.7443,-45.8199,
6.7510,-0.0112,0.0930,1.0218,0.0150,0.0081,0.0132,-0.0041,0.0061,0.0002,0.5607,15.7159,-45.8208,
6.7520,-0.0114,0.0924,1.0222,0.0150,0.0081,0.0132,-0.0041,0.0061,0.0002,0.5607,15.7159,-45.8208,
6.7720,-0.0114,0.0924,1.0222,0.0150,0.0081,0.0132,-0.0078,0.0067,0.0005,0.5607,15.7159,-45.8208,
6.7730,-0.0121,0.0920,1.0216,0.0150,0.0081,0.0132,-0.0078,0.0067,0.0005,0.5607,15.7159,-45.8208,
6.7920,-0.0121,0.0920,1.0216,0.0036,0.0155,-0.0007,-0.0078,0.0067,0.0005,0.5607,15.7159,-45.8208,
6.7930,-0.0105,0.0916,1.0213,0.0036,0.0155,-0.0007,-0.0078,0.0067,0.0005,0.5607,15.7159,-45.8208,
6.7940,-0.0093,0.0935,1.0219,0.0036,0.0155,-0.0007,-0.0078,0.0067,0.0005,0.5607,15.7159,-45.8208,
6.7940,-0.0093,0.0935,1.0219,0.0036,0.0155,-0.0007,-0.0038,0.0000,-0.0010,0.5607,15.7159,-45.8208,
6.8170,-0.0093,0.0943,1.0218,0.0036,0.0155,-0.0007,-0.0038,0.0000,-0.0010,0.5607,15.7159,-45.8208,
6.8180,-0.0093,0.0943,1.0218,0.0036,0.0155,-0.0007,-0.0038,0.0000,-0.0010,0.4879,15.7119,-45.8493,
6.8380,-0.0093,0.0953,1.0217,0.0036,0.0155,-0.0007,-0.0038,0.0000,-0.0010,0.4879,15.7119,-45.8493,
6.8410,-0.0093,0.0953,1.0217,0.0036,0.0155,-0.0007,0.0017,0.0028,-0.0007,0.4879,15.7119,-45.8493,
6.8500,-0.0110,0.0967,1.0219,0.0036,0.0155,-0.0007,0.0017,0.0028,-0.0007,0.4879,15.7119,-45.8493,
6.8510,-0.0110,0.0967,1.0219,0.0060,0.0052,-0.0045,0.0017,0.0028,-0.0007,0.4879,15.7119,-45.8493,
6.8830,-0.0110,0.0967,1.0219,0.0060,0.0052,-0.0045,-0.0011,0.0083,0.0008,0.4879,15.7119,-45.8493,
6.8840,-0.0108,0.0956,1.0232,0.0060,0.0052,-0.0045,-0.0011,0.0083,0.0008,0.4879,15.7119,-45.8493,
6.8850,-0.0108,0.0956,1.0232,0.0060,0.0052,-0.0045,-0.0011,0.0083,0.0008,0.4861,15.6718,-45.8776,
6.9050,-0.0114,0.0947,1.0235,0.0060,0.0052,-0.0045,-0.0011,0.0083,0.0008,0.4861,15.6718,-45.8776,
6.9290,-0.0114,0.0947,1.0235,0.0060,0.0052,-0.0045,-0.0032,0.0031,0.0018,0.4861,15.6718,-45.8776,
6.9310,-0.0101,0.0921,1.0239,0.0060,0.0052,-0.0045,-0.0032,0.0031,0.0018,0.4861,15.6718,-45.8776,
6.9310,-0.0101,0.0921,1.0239,0.0141,0.0329,-0.0010,-0.0032,0.0031,0.0018,0.4861,15.6718,-45.8776,
6.9320,-0.0089,0.0926,1.0245,0.0141,0.0329,-0.0010,-0.0032,0.0031,0.0018,0.4861,15.6718,-45.8776,
6.9510,-0.0089,0.0926,1.0245,0.0141,0.0329,-0.0010,0.0023,-0.0009,-0.0013,0.4861,15.6718,-45.8776,
6.9520,-0.0133,0.0932,1.0205,0.0141,0.0329,-0.0010,0.0023,-0.0009,-0.0013,0.4861,15.6718,-45.8776,
6.9530,-0.0133,0.0932,1.0205,0.0141,0.0329,-0.0010,0.0023,-0.0009,-0.0013,0.4728,15.6520,-45.8664,
6.9710,-0.0143,0.0934,1.0155,0.0141,0.0329,-0.0010,0.0023,-0.0009,-0.0013,0.4728,15.6520,-45.8664,
6.9870,-0.0098,0.0931,1.0184,0.0141,0.0329,-0.0010,0.0023,-0.0009,-0.0013,0.4728,15.6520,-45.8664,
6.9880,-0.0098,0.0931,1.0184,0.0141,0.0329,-0.0010,-0.0017,0.0064,0.0042,0.4728,15.6520,-45.8664,
6.9890,-0.0098,0.0931,1.0184,0.0128,0.0129,0.0170,-0.0017,0.0064,0.0042,0.4728,15.6520,-45.8664,
7.0170,-0.0098,0.0931,1.0184,0.0128,0.0129,0.0170,-0.0017,0.0064,0.0042,0.4595,15.6208,-45.9074,
7.0190,-0.0094,0.0957,1.0246,0.0128,0.0129,0.0170,-0.0017,0.0064,0.0042,0.4595,15.6208,-45.9074,
7.0380,-0.0132,0.0981,1.0260,0.0128,0.0129,0.0170,-0.0017,0.0064,0.0042,0.4595,15.6208,-45.9074,
7.0400,-0.0132,0.0981,1.0260,0.0128,0.0129,0.0170,0.0026,0.0211,-0.0016,0.4595,15.6208,-45.9074,
7.0640,-0.0136,0.0942,1.0301,0.0128,0.0129,0.0170,0.0026,0.0211,-0.0016,0.4595,15.6208,-45.9074,
7.0660,-0.0136,0.0942,1.0301,0.0128,0.0129,0.0170,0.0142,0.0095,0.0051,0.4595,15.6208,-45.9074,
7.0660,-0.0144,0.0904,1.0286,0.0128,0.0129,0.0170,0.0142,0.0095,0.0051,0.4595,15.6208,-45.9074,
7.0670,-0.0144,0.0904,1.0286,0.0064,0.0047,-0.0283,0.0142,0.0095,0.0051,0.4595,15.6208,-45.9074,
7.0840,-0.0144,0.0904,1.0286,0.0064,0.0047,-0.0283,0.0142,0.0095,0.0051,0.4204,15.5811,-45.8727,
7.1040,-0.0073,0.0885,1.0213,0.0064,0.0047,-0.0283,0.0142,0.0095,0.0051,0.4204,15.5811,-45.8727,
7.1050,-0.0079,0.0920,1.0175,0.0064,0.0047,-0.0283,0.0142,0.0095,0.0051,0.4204,15.5811,-45.8727,
7.1060,-0.0079,0.0920,1.0175,0.0064,0.0047,-0.0283,0.0087,-0.0226,-0.0004,0.4204,15.5811,-45.8727,
7.1240,-0.0079,0.0920,1.0175,-0.0211,0.0173,0.0525,0.0087,-0.0226,-0.0004,0.4204,15.5811,-45.8727,
7.1260,-0.0084,0.0953,1.0062,-0.0211,0.0173,0.0525,0.0087,-0.0226,-0.0004,0.4204,15.5811,-45.8727,
7.1510,-0.0084,0.0953,1.0062,-0.0211,0.0173,0.0525,-0.0344,-0.0265,-0.0068,0.4204,15.5811,-45.8727,
7.1530,-0.0089,0.0987,0.9966,-0.0211,0.0173,0.0525,-0.0344,-0.0265,-0.0068,0.4204,15.5811,-45.8727,
7.1560,-0.0089,0.0987,0.9966,-0.0211,0.0173,0.0525,-0.0344,-0.0265,-0.0068,0.4191,15.5622,-45.8482,
7.1720,-0.0132,0.1008,1.0192,-0.0211,0.0173,0.0525,-0.0344,-0.0265,-0.0068,0.4191,15.5622,-45.8482,
7.2020,-0.0132,0.1008,1.0192,-0.0211,0.0173,0.0525,-0.0640,0.0098,0.0002,0.4191,15.5622,-45.8482,
7.2040,-0.0111,0.0985,1.0424,-0.0211,0.0173,0.0525,-0.0640,0.0098,0.0002,0.4191,15.5622,-45.8482,
7.2050,-0.0099,0.0946,1.0427,-0.0211,0.0173,0.0525,-0.0640,0.0098,0.0002,0.4191,15.5622,-45.8482,
7.2050,-0.0099,0.0946,1.0427,0.0325,0.0275,-0.0925,-0.0640,0.0098,0.0002,0.4191,15.5622,-45.8482,
7.2170,-0.0099,0.0946,1.0427,0.0325,0.0275,-0.0925,-0.0640,0.0098,0.0002,0.3835,15.5913,-45.8091,
7.2370,-0.0110,0.0871,1.0322,0.0325,0.0275,-0.0925,-0.0640,0.0098,0.0002,0.3835,15.5913,-45.8091,
7.2380,-0.0110,0.0871,1.0322,0.0325,0.0275,-0.0925,0.0170,0.0171,-0.0037,0.3835,15.5913,-45.8091,
7.2600,-0.0110,0.0871,1.0322,0.0325,0.0275,-0.0925,0.0322,0.0019,-0.0010,0.3835,15.5913,-45.8091,
7.2610,-0.0110,0.0871,1.0322,0.0057,0.0524,0.0711,0.0322,0.0019,-0.0010,0.3835,15.5913,-45.8091,
7.2620,-0.0098,0.0844,1.0219,0.0057,0.0524,0.0711,0.0322,0.0019,-0.0010,0.3835,15.5913,-45.8091,
7.2620,-0.0111,0.0870,1.0137,0.0057,0.0524,0.0711,0.0322,0.0019,-0.0010,0.3835,15.5913,-45.8091,
7.2840,-0.0111,0.0870,1.0137,0.0057,0.0524,0.0711,0.0322,0.0019,-0.0010,0.3701,15.5715,-45.7980,
7.2860,-0.0138,0.0930,1.0126,0.0057,0.0524,0.0711,0.0322,0.0019,-0.0010,0.3701,15.5715,-45.7980,
7.3040,-0.0143,0.0957,1.0174,0.0057,0.0524,0.0711,0.0322,0.0019,-0.0010,0.3701,15.5715,-45.7980,
7.3050,-0.0143,0.0957,1.0174,0.0057,0.0524,0.0711,0.0087,0.0098,0.0051,0.3701,15.5715,-45.7980,
7.3380,-0.0143,0.0957,1.0174,0.0057,0.0524,0.0711,0.0011,0.0110,0.0033,0.3701,15.5715,-45.7980,
7.3380,-0.0116,0.0967,1.0249,0.0057,0.0524,0.0711,0.0011,0.0110,0.0033,0.3701,15.5715,-45.7980,
7.3390,-0.0105,0.0949,1.0282,0.0057,0.0524,0.0711,0.0011,0.0110,0.0033,0.3701,15.5715,-45.7980,
7.3400,-0.0105,0.0949,1.0282,0.0117,-0.0524,-0.0101,0.0011,0.0110,0.0033,0.3701,15.5715,-45.7980,
7.3500,-0.0105,0.0949,1.0282,0.0117,-0.0524,-0.0101,0.0011,0.0110,0.0033,0.4414,15.5461,-45.7713,
7.3710,-0.0110,0.0940,1.0256,0.0117,-0.0524,-0.0101,0.0011,0.0110,0.0033,0.4414,15.5461,-45.7713,
7.3970,-0.0105,0.0940,1.0222,0.0117,-0.0524,-0.0101,0.0011,0.0110,0.0033,0.4414,15.5461,-45.7713,
7.4000,-0.0105,0.0940,1.0222,0.0117,-0.0524,-0.0101,0.0075,0.0052,-0.0022,0.4414,15.5461,-45.7713,
7.4010,-0.0105,0.0940,1.0222,0.0029,0.0252,-0.0010,0.0075,0.0052,-0.0022,0.4414,15.5461,-45.7713,
7.4010,-0.0115,0.0953,1.0253,0.0029,0.0252,-0.0010,0.0075,0.0052,-0.0022,0.4414,15.5461,-45.7713,
7.4170,-0.0093,0.0948,1.0244,0.0029,0.0252,-0.0010,0.0075,0.0052,-0.0022,0.4414,15.5461,-45.7713,
7.4190,-0.0093,0.0948,1.0244,0.0029,0.0252,-0.0010,0.0023,0.0110,0.0014,0.4414,15.5461,-45.7713,
7.4200,-0.0093,0.0948,1.0244,0.0029,0.0252,-0.0010,0.0023,0.0110,0.0014,0.5400,15.5591,-45.8056,
7.4380,-0.0100,0.0945,1.0202,0.0029,0.0252,-0.0010,0.0023,0.0110,0.0014,0.5400,15.5591,-45.8056,
7.4750,-0.0126,0.0959,1.0156,0.0029,0.0252,-0.0010,0.0023,0.0110,0.0014,0.5400,15.5591,-45.8056,
7.4760,-0.0126,0.0959,1.0156,0.0029,0.0252,-0.0010,-0.0014,0.0022,0.0005,0.5400,15.5591,-45.8056,
7.4770,-0.0123,0.0967,1.0197,0.0029,0.0252,-0.0010,-0.0014,0.0022,0.0005,0.5400,15.5591,-45.8056,
7.4770,-0.0123,0.0967,1.0197,0.0202,0.0140,0.0209,-0.0014,0.0022,0.0005,0.5400,15.5591,-45.8056,
7.4820,-0.0123,0.0967,1.0197,0.0202,0.0140,0.0209,-0.0014,0.0022,0.0005,0.6374,15.5638,-45.7891,
7.5040,-0.0130,0.0971,1.0225,0.0202,0.0140,0.0209,-0.0014,0.0022,0.0005,0.6374,15.5638,-45.7891,
7.5050,-0.0130,0.0971,1.0225,0.0202,0.0140,0.0209,-0.0011,0.0061,0.0011,0.6374,15.5638,-45.7891,
7.5340,-0.0126,0.0960,1.0229,0.0202,0.0140,0.0209,-0.0011,0.0061,0.0011,0.6374,15.5638,-45.7891,
7.5360,-0.0126,0.0960,1.0229,0.0202,0.0140,0.0209,0.0081,0.0016,-0.0001,0.6374,15.5638,-45.7891,
7.5360,-0.0108,0.0947,1.0228,0.0202,0.0140,0.0209,0.0081,0.0016,-0.0001,0.6374,15.5638,-45.7891,
7.5370,-0.0108,0.0947,1.0228,0.0134,0.0176,-0.0272,0.0081,0.0016,-0.0001,0.6374,15.5638,-45.7891,
7.5500,-0.0108,0.0947,1.0228,0.0134,0.0176,-0.0272,0.0081,0.0016,-0.0001,0.7362,15.5984,-45.7578,
7.5720,-0.0110,0.0942,1.0242,0.0134,0.0176,-0.0272,0.0081,0.0016,-0.0001,0.7362,15.5984,-45.7578,
7.6120,-0.0110,0.0940,1.0223,0.0134,0.0176,-0.0272,0.0081,0.0016,-0.0001,0.7362,15.5984,-45.7578,
7.6130,-0.0110,0.0940,1.0223,0.0134,0.0176,-0.0272,0.0075,-0.0058,-0.0016,0.7362,15.5984,-45.7578,
7.6140,-0.0110,0.0940,1.0223,0.0053,0.0172,0.0077,0.0075,-0.0058,-0.0016,0.7362,15.5984,-45.7578,
7.6150,-0.0110,0.0940,1.0223,0.0053,0.0172,0.0077,-0.0041,-0.0015,0.0002,0.7362,15.5984,-45.7578,
7.6150,-0.0116,0.0946,1.0201,0.0053,0.0172,0.0077,-0.0041,-0.0015,0.0002,0.7362,15.5984,-45.7578,
7.6160,-0.0119,0.0958,1.0199,0.0053,0.0172,0.0077,-0.0041,-0.0015,0.0002,0.7362,15.5984,-45.7578,
7.6170,-0.0119,0.0958,1.0199,0.0053,0.0172,0.0077,-0.0041,-0.0015,0.0002,0.8457,15.5927,-45.7800,
7.6380,-0.0128,0.0951,1.0197,0.0053,0.0172,0.0077,-0.0041,-0.0015,0.0002,0.8457,15.5927,-45.7800,
7.6700,-0.0128,0.0951,1.0197,0.0053,0.0172,0.0077,-0.0081,0.0074,0.0011,0.8457,15.5927,-45.7800,
7.6710,-0.0133,0.0949,1.0195,0.0053,0.0172,0.0077,-0.0081,0.0074,0.0011,0.8457,15.5927,-45.7800,
7.6710,-0.0123,0.0936,1.0195,0.0053,0.0172,0.0077,-0.0081,0.0074,0.0011,0.8457,15.5927,-45.7800,
7.6720,-0.0123,0.0936,1.0195,0.0127,0.0098,-0.0069,-0.0081,0.0074,0.0011,0.8457,15.5927,-45.7800,
7.6820,-0.0123,0.0936,1.0195,0.0127,0.0098,-0.0069,-0.0081,0.0074,0.0011,0.9313,15.5961,-45.7896,
7.7040,-0.0120,0.0935,1.0201,0.0127,0.0098,-0.0069,-0.0081,0.0074,0.0011,0.9313,15.5961,-45.7896,
7.7050,-0.0120,0.0935,1.0201,0.0127,0.0098,-0.0069,-0.0053,0.0049,0.0002,0.9313,15.5961,-45.7896,
7.7490,-0.0120,0.0935,1.0201,0.0127,0.0098,-0.0069,-0.0011,-0.0003,-0.0013,0.9313,15.5961,-45.7896,
7.7500,-0.0114,0.0940,1.0223,0.0127,0.0098,-0.0069,-0.0011,-0.0003,-0.0013,0.9313,15.5961,-45.7896,
7.7510,-0.0114,0.0954,1.0229,0.0127,0.0098,-0.0069,-0.0011,-0.0003,-0.0013,0.9313,15.5961,-45.7896,
7.7520,-0.0114,0.0954,1.0229,0.0003,0.0063,-0.0217,-0.0011,-0.0003,-0.0013,0.9313,15.5961,-45.7896,
7.7520,-0.0111,0.0969,1.0214,0.0003,0.0063,-0.0217,-0.0011,-0.0003,-0.0013,0.9313,15.5961,-45.7896,
7.7530,-0.0111,0.0969,1.0214,0.0003,0.0063,-0.0217,-0.0011,-0.0003,-0.0013,0.9546,15.5665,-45.8292,
7.7720,-0.0111,0.0969,1.0214,0.0003,0.0063,-0.0217,-0.0011,0.0019,-0.0016,0.9546,15.5665,-45.8292,
7.7730,-0.0112,0.0978,1.0208,0.0003,0.0063,-0.0217,-0.0011,0.0019,-0.0016,0.9546,15.5665,-45.8292,
7.8080,-0.0112,0.0978,1.0208,0.0143,0.0166,0.0018,-0.0011,0.0019,-0.0016,0.9546,15.5665,-45.8292,
7.8090,-0.0112,0.0978,1.0208,0.0143,0.0166,0.0018,-0.0053,0.0037,0.0011,0.9546,15.5665,-45.8292,
7.8100,-0.0123,0.0971,1.0214,0.0143,0.0166,0.0018,-0.0053,0.0037,0.0011,0.9546,15.5665,-45.8292,
7.8100,-0.0122,0.0956,1.0218,0.0143,0.0166,0.0018,-0.0053,0.0037,0.0011,0.9546,15.5665,-45.8292,
7.8170,-0.0122,0.0956,1.0218,0.0143,0.0166,0.0018,-0.0053,0.0037,0.0011,0.9936,15.5956,-45.8902,
7.8390,-0.0103,0.0938,1.0224,0.0143,0.0166,0.0018,-0.0053,0.0037,0.0011,0.9936,15.5956,-45.8902,
7.8850,-0.0116,0.0942,1.0200,0.0143,0.0166,0.0018,-0.0053,0.0037,0.0011,0.9936,15.5956,-45.8902,
7.8860,-0.0116,0.0942,1.0200,0.0143,0.0166,0.0018,-0.0017,-0.0009,-0.0004,0.9936,15.5956,-45.8902,
7.8870,-0.0147,0.0953,1.0145,0.0143,0.0166,0.0018,-0.0017,-0.0009,-0.0004,0.9936,15.5956,-45.8902,
7.8880,-0.0147,0.0953,1.0145,0.0143,0.0166,0.0018,-0.0017,-0.0009,-0.0004,1.0076,15.6358,-45.8744,
7.8890,-0.0143,0.0949,1.0140,0.0143,0.0166,0.0018,-0.0017,-0.0009,-0.0004,1.0076,15.6358,-45.8744,
7.8900,-0.0143,0.0949,1.0140,0.0099,0.0253,-0.0018,-0.0017,-0.0009,-0.0004,1.0076,15.6358,-45.8744,
7.8900,-0.0143,0.0949,1.0140,0.0099,0.0253,-0.0018,-0.0029,0.0028,0.0033,1.0076,15.6358,-45.8744,
7.9050,-0.0106,0.0938,1.0199,0.0099,0.0253,-0.0018,-0.0029,0.0028,0.0033,1.0076,15.6358,-45.8744,
7.9430,-0.0106,0.0938,1.0199,0.0099,0.0253,-0.0018,-0.0023,0.0156,0.0011,1.0076,15.6358,-45.8744,
7.9450,-0.0127,0.0979,1.0249,0.0099,0.0253,-0.0018,-0.0023,0.0156,0.0011,1.0076,15.6358,-45.8744,
7.9450,-0.0145,0.0974,1.0268,0.0099,0.0253,-0.0018,-0.0023,0.0156,0.0011,1.0076,15.6358,-45.8744,
7.9460,-0.0145,0.0974,1.0268,0.0071,0.0064,-0.0420,-0.0023,0.0156,0.0011,1.0076,15.6358,-45.8744,
7.9500,-0.0145,0.0974,1.0268,0.0071,0.0064,-0.0420,-0.0023,0.0156,0.0011,1.0090,15.6767,-45.8204,
7.9710,-0.0147,0.0938,1.0305,0.0071,0.0064,-0.0420,-0.0023,0.0156,0.0011,1.0090,15.6767,-45.8204,
7.9720,-0.0147,0.0938,1.0305,0.0071,0.0064,-0.0420,0.0130,0.0132,0.0027,1.0090,15.6767,-45.8204,
8.0170,-0.0122,0.0902,1.0280,0.0071,0.0064,-0.0420,0.0130,0.0132,0.0027,1.0090,15.6767,-45.8204,
8.0180,-0.0072,0.0927,1.0186,0.0071,0.0064,-0.0420,0.0130,0.0132,0.0027,1.0090,15.6767,-45.8204,
8.0190,-0.0072,0.0927,1.0186,0.0071,0.0064,-0.0420,0.0163,-0.0156,0.0014,1.0090,15.6767,-45.8204,
8.0200,-0.0072,0.0927,1.0186,0.0071,0.0064,-0.0420,0.0163,-0.0156,0.0014,0.9848,15.6642,-45.8734,
8.0210,-0.0095,0.0960,1.0104,0.0071,0.0064,-0.0420,0.0163,-0.0156,0.0014,0.9848,15.6642,-45.8734,
8.0230,-0.0095,0.0960,1.0104,-0.0006,0.0108,0.0312,0.0163,-0.0156,0.0014,0.9848,15.6642,-45.8734,
8.0810,-0.0099,0.0975,0.9952,-0.0006,0.0108,0.0312,0.0163,-0.0156,0.0014,0.9848,15.6642,-45.8734,
8.0820,-0.0114,0.1001,1.0004,-0.0006,0.0108,0.0312,0.0163,-0.0156,0.0014,0.9848,15.6642,-45.8734,
8.0830,-0.0137,0.1001,1.0290,-0.0006,0.0108,0.0312,0.0163,-0.0156,0.0014,0.9848,15.6642,-45.8734,
8.0830,-0.0137,0.1001,1.0290,-0.0006,0.0108,0.0312,-0.0154,-0.0287,-0.0071,0.9848,15.6642,-45.8734,
8.0840,-0.0137,0.1001,1.0290,0.0135,0.0165,-0.0106,-0.0154,-0.0287,-0.0071,0.9848,15.6642,-45.8734,
8.0840,-0.0137,0.1001,1.0290,0.0135,0.0165,-0.0106,-0.0731,-0.0024,0.0008,0.9848,15.6642,-45.8734,
8.0850,-0.0137,0.1001,1.0290,0.0135,0.0165,-0.0106,-0.0731,-0.0024,0.0008,0.9834,15.6343,-45.8882,
8.1050,-0.0111,0.0976,1.0414,0.0135,0.0165,-0.0106,-0.0731,-0.0024,0.0008,0.9834,15.6343,-45.8882,
8.1510,-0.0111,0.0976,1.0414,0.0135,0.0165,-0.0106,-0.0731,-0.0024,0.0008,0.9123,15.6704,-45.8884,
8.1530,-0.0111,0.0976,1.0414,0.0135,0.0165,-0.0106,-0.0063,0.0242,-0.0016,0.9123,15.6704,-45.8884,
8.1540,-0.0132,0.0941,1.0363,0.0135,0.0165,-0.0106,-0.0063,0.0242,-0.0016,0.9123,15.6704,-45.8884,
8.1540,-0.0137,0.0879,1.0290,0.0135,0.0165,-0.0106,-0.0063,0.0242,-0.0016,0.9123,15.6704,-45.8884,
8.1600,-0.0122,0.0870,1.0191,0.0135,0.0165,-0.0106,-0.0063,0.0242,-0.0016,0.9123,15.6704,-45.8884,
8.1620,-0.0122,0.0870,1.0191,0.0109,0.0560,-0.0757,-0.0063,0.0242,-0.0016,0.9123,15.6704,-45.8884,
8.1620,-0.0122,0.0870,1.0191,0.0109,0.0560,-0.0757,0.0325,0.0016,-0.0016,0.9123,15.6704,-45.8884,
8.2190,-0.0122,0.0870,1.0191,0.0109,0.0560,-0.0757,0.0325,0.0016,-0.0016,0.8637,15.6788,-45.8639,
8.2210,-0.0122,0.0870,1.0191,0.0109,0.0560,-0.0757,0.0157,0.0031,0.0021,0.8637,15.6788,-45.8639,
8.2220,-0.0138,0.0923,1.0125,0.0109,0.0560,-0.0757,0.0157,0.0031,0.0021,0.8637,15.6788,-45.8639,
8.2220,-0.0139,0.0956,1.0140,0.0109,0.0560,-0.0757,0.0157,0.0031,0.0021,0.8637,15.6788,-45.8639,
8.2230,-0.0126,0.0980,1.0202,0.0109,0.0560,-0.0757,0.0157,0.0031,0.0021,0.8637,15.6788,-45.8639,
8.2230,-0.0126,0.0980,1.0202,0.0026,-0.0297,0.0818,0.0157,0.0031,0.0021,0.8637,15.6788,-45.8639,
8.2390,-0.0110,0.0978,1.0251,0.0026,-0.0297,0.0818,0.0157,0.0031,0.0021,0.8637,15.6788,-45.8639,
8.2400,-0.0110,0.0978,1.0251,0.0026,-0.0297,0.0818,-0.0026,0.0104,0.0039,0.8637,15.6788,-45.8639,
8.2850,-0.0110,0.0978,1.0251,0.0026,-0.0297,0.0818,0.0072,0.0049,-0.0013,0.8637,15.6788,-45.8639,
8.2870,-0.0119,0.0954,1.0273,0.0026,-0.0297,0.0818,0.0072,0.0049,-0.0013,0.8637,15.6788,-45.8639,
8.2870,-0.0119,0.0954,1.0273,0.0026,-0.0297,0.0818,0.0072,0.0049,-0.0013,0.8752,15.6699,-45.8512,
8.2890,-0.0123,0.0948,1.0257,0.0026,-0.0297,0.0818,0.0072,0.0049,-0.0013,0.8752,15.6699,-45.8512,
8.2950,-0.0117,0.0954,1.0250,0.0026,-0.0297,0.0818,0.0072,0.0049,-0.0013,0.8752,15.6699,-45.8512,
8.2970,-0.0117,0.0954,1.0250,0.0027,0.0136,-0.0421,0.0072,0.0049,-0.0013,0.8752,15.6699,-45.8512,
8.3520,-0.0117,0.0954,1.0250,0.0027,0.0136,-0.0421,0.0081,0.0031,0.0014,0.8752,15.6699,-45.8512,
8.3540,-0.0110,0.0962,1.0302,0.0027,0.0136,-0.0421,0.0081,0.0031,0.0014,0.8752,15.6699,-45.8512,
8.3550,-0.0110,0.0962,1.0261,0.0027,0.0136,-0.0421,0.0081,0.0031,0.0014,0.8752,15.6699,-45.8512,
8.3550,-0.0110,0.0962,1.0261,0.0027,0.0136,-0.0421,0.0081,0.0031,0.0014,0.7761,15.6471,-45.8176,
8.3560,-0.0110,0.0962,1.0261,0.0027,0.0136,-0.0421,0.0047,-0.0076,0.0002,0.7761,15.6471,-45.8176,
8.3570,-0.0127,0.0965,1.0190,0.0027,0.0136,-0.0421,0.0047,-0.0076,0.0002,0.7761,15.6471,-45.8176,
8.3570,-0.0127,0.0965,1.0190,0.0098,0.0092,0.0430,0.0047,-0.0076,0.0002,0.7761,15.6471,-45.8176,
8.4190,-0.0127,0.0965,1.0190,0.0098,0.0092,0.0430,-0.0099,-0.0149,0.0018,0.7761,15.6471,-45.8176,
8.4210,-0.0127,0.0965,1.0190,0.0098,0.0092,0.0430,-0.0099,-0.0149,0.0018,0.7383,15.6042,-45.8858,
8.4220,-0.0131,0.0973,1.0190,0.0098,0.0092,0.0430,-0.0099,-0.0149,0.0018,0.7383,15.6042,-45.8858,
8.4220,-0.0131,0.0963,1.0223,0.0098,0.0092,0.0430,-0.0099,-0.0149,0.0018,0.7383,15.6042,-45.8858,
8.4230,-0.0115,0.0970,1.0233,0.0098,0.0092,0.0430,-0.0099,-0.0149,0.0018,0.7383,15.6042,-45.8858,
8.4320,-0.0115,0.0970,1.0233,0.0098,0.0092,0.0430,-0.0075,-0.0165,-0.0001,0.7383,15.6042,-45.8858,
8.4330,-0.0108,0.0963,1.0235,0.0098,0.0092,0.0430,-0.0075,-0.0165,-0.0001,0.7383,15.6042,-45.8858,
8.4330,-0.0108,0.0963,1.0235,-0.0001,0.0204,0.0209,-0.0075,-0.0165,-0.0001,0.7383,15.6042,-45.8858,
8.4850,-0.0108,0.0963,1.0235,-0.0001,0.0204,0.0209,-0.0075,-0.0256,-0.0019,0.7383,15.6042,-45.8858,
8.4870,-0.0099,0.0954,1.0239,-0.0001,0.0204,0.0209,-0.0075,-0.0256,-0.0019,0.7383,15.6042,-45.8858,
8.4880,-0.0106,0.0940,1.0208,-0.0001,0.0204,0.0209,-0.0075,-0.0256,-0.0019,0.7383,15.6042,-45.8858,
8.4890,-0.0106,0.0940,1.0208,-0.0001,0.0204,0.0209,-0.0075,-0.0256,-0.0019,0.7505,15.6048,-45.8853,
8.4900,-0.0108,0.0940,1.0184,-0.0001,0.0204,0.0209,-0.0075,-0.0256,-0.0019,0.7505,15.6048,-45.8853,
8.4910,-0.0108,0.0940,1.0184,-0.0170,0.0291,0.0046,-0.0075,-0.0256,-0.0019,0.7505,15.6048,-45.8853,
8.5520,-0.0108,0.0940,1.0184,-0.0170,0.0291,0.0046,-0.0218,-0.0217,0.0021,0.7505,15.6048,-45.8853,
8.5530,-0.0097,0.0942,1.0197,-0.0170,0.0291,0.0046,-0.0218,-0.0217,0.0021,0.7505,15.6048,-45.8853,
8.5540,-0.0093,0.0940,1.0217,-0.0170,0.0291,0.0046,-0.0218,-0.0217,0.0021,0.7505,15.6048,-45.8853,
8.5540,-0.0089,0.0941,1.0240,-0.0170,0.0291,0.0046,-0.0218,-0.0217,0.0021,0.7505,15.6048,-45.8853,
8.5550,-0.0089,0.0941,1.0240,-0.0170,0.0291,0.0046,-0.0224,-0.0082,0.0014,0.7505,15.6048,-45.8853,
8.5560,-0.0089,0.0941,1.0240,-0.0170,0.0291,0.0046,-0.0224,-0.0082,0.0014,0.7019,15.6242,-45.8216,
8.5680,-0.0089,0.0941,1.0240,-0.0060,0.0187,-0.0120,-0.0224,-0.0082,0.0014,0.7019,15.6242,-45.8216,
8.5700,-0.0086,0.0938,1.0233,-0.0060,0.0187,-0.0120,-0.0224,-0.0082,0.0014,0.7019,15.6242,-45.8216,
8.6160,-0.0081,0.0940,1.0214,-0.0060,0.0187,-0.0120,-0.0224,-0.0082,0.0014,0.7019,15.6242,-45.8216,
8.6180,-0.0081,0.0940,1.0214,-0.0060,0.0187,-0.0120,-0.0157,-0.0085,-0.0004,0.7019,15.6242,-45.8216,
8.6180,-0.0081,0.0940,1.0214,-0.0060,0.0187,-0.0120,-0.0157,-0.0085,-0.0004,0.6798,15.6730,-45.7936,
8.6190,-0.0073,0.0932,1.0206,-0.0060,0.0187,-0.0120,-0.0157,-0.0085,-0.0004,0.6798,15.6730,-45.7936,
8.6260,-0.0077,0.0938,1.0213,-0.0060,0.0187,-0.0120,-0.0157,-0.0085,-0.0004,0.6798,15.6730,-45.7936,
8.6270,-0.0077,0.0938,1.0213,-0.0060,0.0187,-0.0120,-0.0182,-0.0149,-0.0001,0.6798,15.6730,-45.7936,
8.6280,-0.0077,0.0938,1.0213,-0.0026,0.0240,0.0023,-0.0182,-0.0149,-0.0001,0.6798,15.6730,-45.7936,
8.6860,-0.0077,0.0938,1.0213,-0.0026,0.0240,0.0023,-0.0182,-0.0149,-0.0001,0.6791,15.6526,-45.8206,
8.6880,-0.0068,0.0937,1.0227,-0.0026,0.0240,0.0023,-0.0182,-0.0149,-0.0001,0.6791,15.6526,-45.8206,
8.6890,-0.0068,0.0937,1.0227,-0.0026,0.0240,0.0023,-0.0224,-0.0107,0.0011,0.6791,15.6526,-45.8206,
8.6900,-0.0071,0.0943,1.0216,-0.0026,0.0240,0.0023,-0.0224,-0.0107,0.0011,0.6791,15.6526,-45.8206,
8.7050,-0.0072,0.0937,1.0235,-0.0026,0.0240,0.0023,-0.0224,-0.0107,0.0011,0.6791,15.6526,-45.8206,
8.7070,-0.0072,0.0937,1.0235,-0.0026,0.0240,0.0023,-0.0261,-0.0012,0.0021,0.6791,15.6526,-45.8206,
8.7070,-0.0070,0.0924,1.0234,-0.0026,0.0240,0.0023,-0.0261,-0.0012,0.0021,0.6791,15.6526,-45.8206,
8.7080,-0.0070,0.0924,1.0234,0.0084,0.0334,-0.0085,-0.0261,-0.0012,0.0021,0.6791,15.6526,-45.8206,
8.7500,-0.0070,0.0924,1.0234,0.0084,0.0334,-0.0085,-0.0234,-0.0070,0.0008,0.6791,15.6526,-45.8206,
8.7510,-0.0070,0.0924,1.0234,0.0084,0.0334,-0.0085,-0.0234,-0.0070,0.0008,0.6808,15.6706,-45.8708,
8.7520,-0.0048,0.0901,1.0245,0.0084,0.0334,-0.0085,-0.0234,-0.0070,0.0008,0.6808,15.6706,-45.8708,
8.7530,-0.0049,0.0893,1.0239,0.0084,0.0334,-0.0085,-0.0234,-0.0070,0.0008,0.6808,15.6706,-45.8708,
8.7630,-0.0088,0.0880,1.0203,0.0084,0.0334,-0.0085,-0.0234,-0.0070,0.0008,0.6808,15.6706,-45.8708,
8.7650,-0.0088,0.0880,1.0203,0.0043,0.0423,0.0022,-0.0234,-0.0070,0.0008,0.6808,15.6706,-45.8708,
8.8200,-0.0088,0.0880,1.0203,0.0043,0.0423,0.0022,-0.0231,-0.0125,0.0033,0.6808,15.6706,-45.8708,
8.8220,-0.0088,0.0880,1.0203,0.0043,0.0423,0.0022,-0.0231,-0.0125,0.0033,0.6108,15.7259,-45.8827,
8.8230,-0.0089,0.0883,1.0179,0.0043,0.0423,0.0022,-0.0231,-0.0125,0.0033,0.6108,15.7259,-45.8827,
8.8240,-0.0053,0.0896,1.0205,0.0043,0.0423,0.0022,-0.0231,-0.0125,0.0033,0.6108,15.7259,-45.8827,
8.8390,-0.0062,0.0918,1.0229,0.0043,0.0423,0.0022,-0.0231,-0.0125,0.0033,0.6108,15.7259,-45.8827,
8.8410,-0.0062,0.0918,1.0229,0.0043,0.0423,0.0022,-0.0252,-0.0052,0.0014,0.6108,15.7259,-45.8827,
8.8410,-0.0066,0.0915,1.0238,0.0043,0.0423,0.0022,-0.0252,-0.0052,0.0014,0.6108,15.7259,-45.8827,
8.8420,-0.0066,0.0915,1.0238,0.0060,0.0110,-0.0033,-0.0252,-0.0052,0.0014,0.6108,15.7259,-45.8827,
8.8840,-0.0072,0.0881,1.0300,0.0060,0.0110,-0.0033,-0.0252,-0.0052,0.0014,0.6108,15.7259,-45.8827,
8.8860,-0.0072,0.0881,1.0300,0.0060,0.0110,-0.0033,-0.0142,-0.0003,0.0002,0.6108,15.7259,-45.8827,
8.8870,-0.0066,0.0842,1.0345,0.0060,0.0110,-0.0033,-0.0142,-0.0003,0.0002,0.6108,15.7259,-45.8827,
8.8880,-0.0066,0.0842,1.0345,0.0060,0.0110,-0.0033,-0.0142,-0.0003,0.0002,0.6263,15.7849,-45.8913,
8.9000,-0.0066,0.0842,1.0345,-0.0038,0.0273,-0.0080,-0.0142,-0.0003,0.0002,0.6263,15.7849,-45.8913,
8.9010,-0.0066,0.0842,1.0345,-0.0038,0.0273,-0.0080,0.0023,-0.0220,0.0027,0.6263,15.7849,-45.8913,
8.9010,-0.0005,0.0842,1.0217,-0.0038,0.0273,-0.0080,0.0023,-0.0220,0.0027,0.6263,15.7849,-45.8913,
8.9510,-0.0007,0.0870,1.0101,-0.0038,0.0273,-0.0080,0.0023,-0.0220,0.0027,0.6263,15.7849,-45.8913,
8.9540,-0.0007,0.0870,1.0101,-0.0038,0.0273,-0.0080,-0.0234,-0.0302,-0.0068,0.6263,15.7849,-45.8913,
8.9540,-0.0039,0.0892,1.0081,-0.0038,0.0273,-0.0080,-0.0234,-0.0302,-0.0068,0.6263,15.7849,-45.8913,
8.9550,-0.0039,0.0892,1.0081,-0.0038,0.0273,-0.0080,-0.0234,-0.0302,-0.0068,0.5296,15.8227,-45.8024,
8.9720,-0.0026,0.0920,1.0097,-0.0038,0.0273,-0.0080,-0.0234,-0.0302,-0.0068,0.5296,15.8227,-45.8024,
8.9780,-0.0026,0.0920,1.0097,-0.0038,0.0273,-0.0080,-0.0689,-0.0058,-0.0007,0.5296,15.8227,-45.8024,
8.9790,-0.0044,0.0934,1.0280,-0.0038,0.0273,-0.0080,-0.0689,-0.0058,-0.0007,0.5296,15.8227,-45.8024,
8.9820,-0.0044,0.0934,1.0280,0.0077,0.0119,0.0318,-0.0689,-0.0058,-0.0007,0.5296,15.8227,-45.8024,
9.0160,-0.0044,0.0934,1.0280,0.0077,0.0119,0.0318,-0.0191,0.0083,-0.0007,0.5296,15.8227,-45.8024,
9.0170,-0.0032,0.0894,1.0410,0.0077,0.0119,0.0318,-0.0191,0.0083,-0.0007,0.5296,15.8227,-45.8024,
9.0170,-0.0039,0.0849,1.0351,0.0077,0.0119,0.0318,-0.0191,0.0083,-0.0007,0.5296,15.8227,-45.8024,
9.0170,-0.0039,0.0849,1.0351,0.0077,0.0119,0.0318,-0.0191,0.0083,-0.0007,0.4834,15.8806,-45.7619,
9.0370,-0.0039,0.0849,1.0351,0.0171,0.0599,-0.0792,-0.0191,0.0083,-0.0007,0.4834,15.8806,-45.7619,
9.0380,-0.0029,0.0793,1.0268,0.0171,0.0599,-0.0792,-0.0191,0.0083,-0.0007,0.4834,15.8806,-45.7619,
9.0840,-0.0029,0.0793,1.0268,0.0171,0.0599,-0.0792,0.0118,0.0055,0.0021,0.4834,15.8806,-45.7619,
9.0860,-0.0028,0.0770,1.0196,0.0171,0.0599,-0.0792,0.0118,0.0055,0.0021,0.4834,15.8806,-45.7619,
9.0870,-0.0048,0.0813,1.0163,0.0171,0.0599,-0.0792,0.0118,0.0055,0.0021,0.4834,15.8806,-45.7619,
9.0870,-0.0048,0.0813,1.0163,0.0171,0.0599,-0.0792,0.0118,0.0055,0.0021,0.4621,15.9384,-45.7591,
9.1040,-0.0057,0.0854,1.0186,0.0171,0.0599,-0.0792,0.0118,0.0055,0.0021,0.4621,15.9384,-45.7591,
9.1060,-0.0057,0.0854,1.0186,0.0171,0.0599,-0.0792,-0.0078,0.0043,-0.0007,0.4621,15.9384,-45.7591,
9.1140,-0.0054,0.0864,1.0235,0.0171,0.0599,-0.0792,-0.0078,0.0043,-0.0007,0.4621,15.9384,-45.7591,
9.1140,-0.0054,0.0864,1.0235,0.0183,-0.0066,0.0881,-0.0078,0.0043,-0.0007,0.4621,15.9384,-45.7591,
9.1500,-0.0054,0.0864,1.0235,0.0183,-0.0066,0.0881,-0.0209,-0.0027,0.0014,0.4621,15.9384,-45.7591,
9.1510,-0.0045,0.0863,1.0261,0.0183,-0.0066,0.0881,-0.0209,-0.0027,0.0014,0.4621,15.9384,-45.7591,
9.1520,-0.0045,0.0863,1.0261,0.0183,-0.0066,0.0881,-0.0209,-0.0027,0.0014,0.3920,16.0051,-45.7188,
9.1710,-0.0035,0.0857,1.0250,0.0183,-0.0066,0.0881,-0.0209,-0.0027,0.0014,0.3920,16.0051,-45.7188,
9.1720,-0.0029,0.0844,1.0227,0.0183,-0.0066,0.0881,-0.0209,-0.0027,0.0014,0.3920,16.0051,-45.7188,
9.1730,-0.0029,0.0844,1.0227,0.0183,-0.0066,0.0881,-0.0191,-0.0073,-0.0013,0.3920,16.0051,-45.7188,
9.1730,-0.0029,0.0844,1.0227,-0.0027,0.0060,-0.0367,-0.0191,-0.0073,-0.0013,0.3920,16.0051,-45.7188,
9.2170,-0.0029,0.0844,1.0227,-0.0027,0.0060,-0.0367,-0.0252,0.0037,0.0008,0.3920,16.0051,-45.7188,
9.2180,-0.0035,0.0841,1.0210,-0.0027,0.0060,-0.0367,-0.0252,0.0037,0.0008,0.3920,16.0051,-45.7188,
9.2180,-0.0017,0.0842,1.0251,-0.0027,0.0060,-0.0367,-0.0252,0.0037,0.0008,0.3920,16.0051,-45.7188,
9.2190,-0.0017,0.0842,1.0251,-0.0027,0.0060,-0.0367,-0.0252,0.0037,0.0008,0.2839,16.0627,-45.6034,
9.2380,-0.0015,0.0811,1.0213,-0.0027,0.0060,-0.0367,-0.0252,0.0037,0.0008,0.2839,16.0627,-45.6034,
9.2530,-0.0016,0.0816,1.0213,-0.0027,0.0060,-0.0367,-0.0252,0.0037,0.0008,0.2839,16.0627,-45.6034,
9.2550,-0.0016,0.0816,1.0213,-0.0027,0.0060,-0.0367,-0.0325,0.0040,0.0014,0.2839,16.0627,-45.6034,
9.2560,-0.0016,0.0816,1.0213,0.0123,0.0399,0.0064,-0.0325,0.0040,0.0014,0.2839,16.0627,-45.6034,
9.2820,-0.0016,0.0816,1.0213,0.0123,0.0399,0.0064,-0.0325,0.0040,0.0014,0.2128,16.1208,-45.5252,
9.2840,-0.0027,0.0815,1.0234,0.0123,0.0399,0.0064,-0.0325,0.0040,0.0014,0.2128,16.1208,-45.5252,
9.3050,-0.0027,0.0811,1.0268,0.0123,0.0399,0.0064,-0.0325,0.0040,0.0014,0.2128,16.1208,-45.5252,
9.3060,-0.0027,0.0811,1.0268,0.0123,0.0399,0.0064,-0.0328,-0.0039,0.0011,0.2128,16.1208,-45.5252,
9.3090,-0.0024,0.0816,1.0294,0.0123,0.0399,0.0064,-0.0328,-0.0039,0.0011,0.2128,16.1208,-45.5252,
9.3090,-0.0024,0.0816,1.0294,0.0206,0.0275,-0.0087,-0.0328,-0.0039,0.0011,0.2128,16.1208,-45.5252,
9.3510,-0.0024,0.0816,1.0294,0.0206,0.0275,-0.0087,-0.0127,-0.0168,0.0011,0.2128,16.1208,-45.5252,
9.3520,-0.0026,0.0807,1.0295,0.0206,0.0275,-0.0087,-0.0127,-0.0168,0.0011,0.2128,16.1208,-45.5252,
9.3530,-0.0022,0.0802,1.0272,0.0206,0.0275,-0.0087,-0.0127,-0.0168,0.0011,0.2128,16.1208,-45.5252,
9.3530,-0.0022,0.0802,1.0272,0.0206,0.0275,-0.0087,-0.0127,-0.0168,0.0011,0.1659,16.1693,-45.4724,
9.3710,-0.0013,0.0791,1.0250,0.0206,0.0275,-0.0087,-0.0127,-0.0168,0.0011,0.1659,16.1693,-45.4724,
9.3730,-0.0013,0.0791,1.0250,0.0206,0.0275,-0.0087,0.0017,-0.0186,-0.0004,0.1659,16.1693,-45.4724,
9.3880,-0.0013,0.0791,1.0250,0.0003,0.0154,0.0311,0.0017,-0.0186,-0.0004,0.1659,16.1693,-45.4724,
9.3900,0.0002,0.0781,1.0216,0.0003,0.0154,0.0311,0.0017,-0.0186,-0.0004,0.1659,16.1693,-45.4724,
9.4160,-0.0011,0.0791,1.0206,0.0003,0.0154,0.0311,0.0017,-0.0186,-0.0004,0.1659,16.1693,-45.4724,
9.4170,-0.0011,0.0791,1.0206,0.0003,0.0154,0.0311,-0.0118,-0.0137,-0.0022,0.1659,16.1693,-45.4724,
9.4180,-0.0011,0.0791,1.0206,0.0003,0.0154,0.0311,-0.0118,-0.0137,-0.0022,0.1538,16.1908,-45.3944,
9.4370,-0.0006,0.0786,1.0218,0.0003,0.0154,0.0311,-0.0118,-0.0137,-0.0022,0.1538,16.1908,-45.3944,
9.4460,-0.0006,0.0786,1.0218,0.0003,0.0154,0.0311,-0.0328,-0.0061,0.0005,0.1538,16.1908,-45.3944,
9.4470,-0.0004,0.0777,1.0230,0.0003,0.0154,0.0311,-0.0328,-0.0061,0.0005,0.1538,16.1908,-45.3944,
9.4470,-0.0004,0.0777,1.0230,0.0092,0.0115,0.0123,-0.0328,-0.0061,0.0005,0.1538,16.1908,-45.3944,
9.4840,-0.0021,0.0770,1.0230,0.0092,0.0115,0.0123,-0.0328,-0.0061,0.0005,0.1538,16.1908,-45.3944,
9.4850,-0.0021,0.0770,1.0230,0.0092,0.0115,0.0123,-0.0328,-0.0061,0.0005,0.2436,16.2724,-45.4119,
9.5080,-0.0009,0.0763,1.0221,0.0092,0.0115,0.0123,-0.0328,-0.0061,0.0005,0.2436,16.2724,-45.4119,
9.5100,-0.0009,0.0763,1.0221,0.0092,0.0115,0.0123,-0.0313,-0.0027,0.0002,0.2436,16.2724,-45.4119,
9.5100,-0.0012,0.0758,1.0227,0.0092,0.0115,0.0123,-0.0313,-0.0027,0.0002,0.2436,16.2724,-45.4119,
9.5240,-0.0012,0.0758,1.0227,0.0071,0.0206,-0.0187,-0.0313,-0.0027,0.0002,0.2436,16.2724,-45.4119,
9.5250,-0.0011,0.0763,1.0224,0.0071,0.0206,-0.0187,-0.0313,-0.0027,0.0002,0.2436,16.2724,-45.4119,
9.5260,-0.0011,0.0763,1.0224,0.0071,0.0206,-0.0187,-0.0279,-0.0058,-0.0010,0.2436,16.2724,-45.4119,
9.5500,-0.0000,0.0772,1.0238,0.0071,0.0206,-0.0187,-0.0279,-0.0058,-0.0010,0.2436,16.2724,-45.4119,
9.5510,-0.0000,0.0772,1.0238,0.0071,0.0206,-0.0187,-0.0279,-0.0058,-0.0010,0.2222,16.3192,-45.4483,
9.5710,0.0006,0.0775,1.0252,0.0071,0.0206,-0.0187,-0.0279,-0.0058,-0.0010,0.2222,16.3192,-45.4483,
9.5720,0.0006,0.0775,1.0252,0.0071,0.0206,-0.0187,-0.0261,-0.0039,-0.0007,0.2222,16.3192,-45.4483,
9.5820,0.0006,0.0769,1.0263,0.0071,0.0206,-0.0187,-0.0261,-0.0039,-0.0007,0.2222,16.3192,-45.4483,
9.5830,0.0006,0.0769,1.0263,0.0036,0.0140,-0.0150,-0.0261,-0.0039,-0.0007,0.2222,16.3192,-45.4483,
9.6170,0.0006,0.0769,1.0263,0.0036,0.0140,-0.0150,-0.0224,-0.0009,0.0002,0.2222,16.3192,-45.4483,
9.6180,0.0010,0.0760,1.0286,0.0036,0.0140,-0.0150,-0.0224,-0.0009,0.0002,0.2222,16.3192,-45.4483,
9.6180,0.0010,0.0760,1.0286,0.0036,0.0140,-0.0150,-0.0224,-0.0009,0.0002,0.2487,16.3485,-45.4841,
9.6390,0.0010,0.0748,1.0274,0.0036,0.0140,-0.0150,-0.0224,-0.0009,0.0002,0.2487,16.3485,-45.4841,
9.6610,0.0029,0.0745,1.0256,0.0036,0.0140,-0.0150,-0.0224,-0.0009,0.0002,0.2487,16.3485,-45.4841,
9.6620,0.0013,0.0727,1.0225,0.0036,0.0140,-0.0150,-0.0224,-0.0009,0.0002,0.2487,16.3485,-45.4841,
9.6630,0.0013,0.0727,1.0225,0.0036,0.0140,-0.0150,-0.0166,-0.0033,-0.0001,0.2487,16.3485,-45.4841,
9.6640,0.0013,0.0727,1.0225,0.0153,0.0308,0.0145,-0.0166,-0.0033,-0.0001,0.2487,16.3485,-45.4841,
9.6830,0.0013,0.0727,1.0225,0.0153,0.0308,0.0145,-0.0166,-0.0033,-0.0001,0.2498,16.3567,-45.5349,
9.6840,0.0013,0.0727,1.0225,0.0153,0.0308,0.0145,-0.0179,-0.0024,-0.0013,0.2498,16.3567,-45.5349,
9.6850,-0.0016,0.0731,1.0189,0.0153,0.0308,0.0145,-0.0179,-0.0024,-0.0013,0.2498,16.3567,-45.5349,
9.7040,0.0005,0.0728,1.0201,0.0153,0.0308,0.0145,-0.0179,-0.0024,-0.0013,0.2498,16.3567,-45.5349,
9.7190,0.0011,0.0730,1.0251,0.0153,0.0308,0.0145,-0.0179,-0.0024,-0.0013,0.2498,16.3567,-45.5349,
9.7200,0.0011,0.0730,1.0251,0.0153,0.0308,0.0145,-0.0252,0.0031,0.0027,0.2498,16.3567,-45.5349,
9.7200,0.0011,0.0730,1.0251,0.0246,0.0173,0.0116,-0.0252,0.0031,0.0027,0.2498,16.3567,-45.5349,
9.7500,0.0009,0.0736,1.0271,0.0246,0.0173,0.0116,-0.0252,0.0031,0.0027,0.2498,16.3567,-45.5349,
9.7510,0.0009,0.0736,1.0271,0.0246,0.0173,0.0116,-0.0252,0.0031,0.0027,0.3643,16.4386,-45.5772,
9.7710,-0.0001,0.0727,1.0258,0.0246,0.0173,0.0116,-0.0252,0.0031,0.0027,0.3643,16.4386,-45.5772,
9.7720,-0.0001,0.0727,1.0258,0.0246,0.0173,0.0116,-0.0130,-0.0003,0.0002,0.3643,16.4386,-45.5772,
9.7970,-0.0001,0.0727,1.0258,0.0246,0.0173,0.0116,0.0008,-0.0143,0.0042,0.3643,16.4386,-45.5772,
9.7980,-0.0017,0.0698,1.0317,0.0246,0.0173,0.0116,0.0008,-0.0143,0.0042,0.3643,16.4386,-45.5772,
9.7990,0.0030,0.0668,1.0321,0.0246,0.0173,0.0116,0.0008,-0.0143,0.0042,0.3643,16.4386,-45.5772,
9.8000,0.0030,0.0668,1.0321,0.0034,0.0075,-0.0203,0.0008,-0.0143,0.0042,0.3643,16.4386,-45.5772,
9.8170,0.0074,0.0695,1.0133,0.0034,0.0075,-0.0203,0.0008,-0.0143,0.0042,0.3643,16.4386,-45.5772,
9.8180,0.0074,0.0695,1.0133,0.0034,0.0075,-0.0203,0.0008,-0.0143,0.0042,0.4070,16.5360,-45.6467,
9.8380,0.0023,0.0720,1.0062,0.0034,0.0075,-0.0203,0.0008,-0.0143,0.0042,0.4070,16.5360,-45.6467,
9.8400,0.0023,0.0720,1.0062,0.0034,0.0075,-0.0203,-0.0078,-0.0232,-0.0053,0.4070,16.5360,-45.6467,
9.8560,0.0023,0.0720,1.0062,-0.0024,0.0002,0.0449,-0.0078,-0.0232,-0.0053,0.4070,16.5360,-45.6467,
9.8580,0.0006,0.0756,1.0108,-0.0024,0.0002,0.0449,-0.0078,-0.0232,-0.0053,0.4070,16.5360,-45.6467,
9.8830,0.0022,0.0770,1.0163,-0.0024,0.0002,0.0449,-0.0078,-0.0232,-0.0053,0.4070,16.5360,-45.6467,
9.8840,0.0022,0.0770,1.0163,-0.0024,0.0002,0.0449,-0.0622,0.0022,0.0002,0.4070,16.5360,-45.6467,
9.8850,0.0022,0.0770,1.0163,-0.0024,0.0002,0.0449,-0.0622,0.0022,0.0002,0.4710,16.5866,-45.6799,
9.9050,0.0021,0.0743,1.0322,-0.0024,0.0002,0.0449,-0.0622,0.0022,0.0002,0.4710,16.5866,-45.6799,
9.9340,0.0021,0.0743,1.0322,0.0305,0.0453,-0.1269,-0.0622,0.0022,0.0002,0.4710,16.5866,-45.6799,
9.9360,0.0021,0.0743,1.0322,0.0305,0.0453,-0.1269,-0.0475,0.0159,0.0005,0.4710,16.5866,-45.6799,
9.9370,0.0017,0.0705,1.0428,0.0305,0.0453,-0.1269,-0.0475,0.0159,0.0005,0.4710,16.5866,-45.6799,
9.9370,0.0011,0.0657,1.0334,0.0305,0.0453,-0.1269,-0.0475,0.0159,0.0005,0.4710,16.5866,-45.6799,
9.9500,0.0011,0.0657,1.0334,0.0305,0.0453,-0.1269,-0.0475,0.0159,0.0005,0.4758,16.6745,-45.6871,
9.9710,0.0011,0.0657,1.0334,0.0305,0.0453,-0.1269,0.0139,0.0107,0.0008,0.4758,16.6745,-45.6871,
9.9730,0.0026,0.0615,1.0246,0.0305,0.0453,-0.1269,0.0139,0.0107,0.0008,0.4758,16.6745,-45.6871,
9.9920,0.0026,0.0615,1.0246,0.0213,0.0185,0.0901,0.0139,0.0107,0.0008,0.4758,16.6745,-45.6871,
9.9930,0.0026,0.0615,1.0246,0.0213,0.0185,0.0901,0.0105,0.0144,-0.0022,0.4758,16.6745,-45.6871,
9.9940,0.0023,0.0643,1.0218,0.0213,0.0185,0.0901,0.0105,0.0144,-0.0022,0.4758,16.6745,-45.6871,
9.9940,0.0001,0.0672,1.0184,0.0213,0.0185,0.0901,0.0105,0.0144,-0.0022,0.4758,16.6745,-45.6871,
10.0180,-0.0005,0.0693,1.0172,0.0213,0.0185,0.0901,0.0105,0.0144,-0.0022,0.4758,16.6745,-45.6871,
10.0190,-0.0005,0.0693,1.0172,0.0213,0.0185,0.0901,0.0105,0.0144,-0.0022,0.4919,16.7540,-45.6687,
10.0380,-0.0005,0.0693,1.0172,0.0213,0.0185,0.0901,-0.0173,0.0019,-0.0001,0.4919,16.7540,-45.6687,
10.0400,0.0005,0.0698,1.0217,0.0213,0.0185,0.0901,-0.0173,0.0019,-0.0001,0.4919,16.7540,-45.6687,
10.0710,-0.0000,0.0693,1.0252,0.0213,0.0185,0.0901,-0.0173,0.0019,-0.0001,0.4919,16.7540,-45.6687,
10.0730,-0.0000,0.0693,1.0252,0.0213,0.0185,0.0901,-0.0200,-0.0094,0.0008,0.4919,16.7540,-45.6687,
10.0740,-0.0005,0.0687,1.0261,0.0213,0.0185,0.0901,-0.0200,-0.0094,0.0008,0.4919,16.7540,-45.6687,
10.0750,-0.0005,0.0687,1.0261,0.0120,-0.0256,-0.0338,-0.0200,-0.0094,0.0008,0.4919,16.7540,-45.6687,
10.0830,-0.0005,0.0687,1.0261,0.0120,-0.0256,-0.0338,-0.0200,-0.0094,0.0008,0.4561,16.7839,-45.6039,
10.1050,-0.0000,0.0682,1.0229,0.0120,-0.0256,-0.0338,-0.0200,-0.0094,0.0008,0.4561,16.7839,-45.6039,
10.1290,0.0009,0.0695,1.0179,0.0120,-0.0256,-0.0338,-0.0200,-0.0094,0.0008,0.4561,16.7839,-45.6039,
10.1300,0.0009,0.0695,1.0179,0.0012,0.0260,-0.0071,-0.0200,-0.0094,0.0008,0.4561,16.7839,-45.6039,
10.1310,0.0030,0.0690,1.0247,0.0012,0.0260,-0.0071,-0.0200,-0.0094,0.0008,0.4561,16.7839,-45.6039,
10.1310,0.0030,0.0690,1.0247,0.0012,0.0260,-0.0071,-0.0145,-0.0030,0.0018,0.4561,16.7839,-45.6039,
10.1510,0.0034,0.0673,1.0253,0.0012,0.0260,-0.0071,-0.0145,-0.0030,0.0018,0.4561,16.7839,-45.6039,
10.1520,0.0034,0.0673,1.0253,0.0012,0.0260,-0.0071,-0.0228,0.0110,-0.0010,0.4561,16.7839,-45.6039,
10.1520,0.0034,0.0673,1.0253,0.0012,0.0260,-0.0071,-0.0228,0.0110,-0.0010,0.4234,16.8612,-45.5874,
10.1710,0.0013,0.0651,1.0222,0.0012,0.0260,-0.0071,-0.0228,0.0110,-0.0010,0.4234,16.8612,-45.5874,
10.2080,0.0018,0.0650,1.0216,0.0012,0.0260,-0.0071,-0.0228,0.0110,-0.0010,0.4234,16.8612,-45.5874,
10.2100,0.0027,0.0664,1.0269,0.0012,0.0260,-0.0071,-0.0228,0.0110,-0.0010,0.4234,16.8612,-45.5874,
10.2110,0.0027,0.0664,1.0269,0.0157,0.0340,-0.0155,-0.0228,0.0110,-0.0010,0.4234,16.8612,-45.5874,
10.2110,0.0027,0.0664,1.0269,0.0157,0.0340,-0.0155,-0.0252,-0.0006,0.0008,0.4234,16.8612,-45.5874,
10.2180,0.0027,0.0664,1.0269,0.0157,0.0340,-0.0155,-0.0252,-0.0006,0.0008,0.3925,16.9786,-45.5426,
10.2380,0.0015,0.0673,1.0323,0.0157,0.0340,-0.0155,-0.0252,-0.0006,0.0008,0.3925,16.9786,-45.5426,
10.2390,0.0015,0.0673,1.0323,0.0157,0.0340,-0.0155,-0.0218,-0.0058,0.0011,0.3925,16.9786,-45.5426,
10.2670,0.0015,0.0673,1.0323,0.0105,0.0031,-0.0046,-0.0218,-0.0058,0.0011,0.3925,16.9786,-45.5426,
10.2680,0.0015,0.0673,1.0323,0.0105,0.0031,-0.0046,0.0078,-0.0131,-0.0010,0.3925,16.9786,-45.5426,
10.2680,0.0028,0.0666,1.0326,0.0105,0.0031,-0.0046,0.0078,-0.0131,-0.0010,0.3925,16.9786,-45.5426,
10.2690,0.0016,0.0660,1.0263,0.0105,0.0031,-0.0046,0.0078,-0.0131,-0.0010,0.3925,16.9786,-45.5426,
10.2840,0.0016,0.0660,1.0263,0.0105,0.0031,-0.0046,0.0078,-0.0131,-0.0010,0.3212,17.0260,-45.4908,
10.3060,0.0016,0.0660,1.0263,0.0105,0.0031,-0.0046,-0.0084,-0.0116,-0.0013,0.3212,17.0260,-45.4908,
10.3070,0.0026,0.0648,1.0191,0.0105,0.0031,-0.0046,-0.0084,-0.0116,-0.0013,0.3212,17.0260,-45.4908,
10.3080,0.0022,0.0633,1.0184,0.0105,0.0031,-0.0046,-0.0084,-0.0116,-0.0013,0.3212,17.0260,-45.4908,
10.3450,0.0022,0.0633,1.0184,0.0105,0.0031,-0.0046,-0.0371,-0.0015,-0.0007,0.3212,17.0260,-45.4908,
10.3470,0.0024,0.0632,1.0183,0.0105,0.0031,-0.0046,-0.0371,-0.0015,-0.0007,0.3212,17.0260,-45.4908,
10.3470,0.0023,0.0631,1.0224,0.0105,0.0031,-0.0046,-0.0371,-0.0015,-0.0007,0.3212,17.0260,-45.4908,
10.3480,0.0023,0.0631,1.0224,0.0049,0.0261,0.0405,-0.0371,-0.0015,-0.0007,0.3212,17.0260,-45.4908,
10.3490,0.0023,0.0631,1.0224,0.0049,0.0261,0.0405,-0.0371,-0.0015,-0.0007,0.2835,17.0162,-45.4413,
10.3720,0.0027,0.0632,1.0251,0.0049,0.0261,0.0405,-0.0371,-0.0015,-0.0007,0.2835,17.0162,-45.4413,
10.4040,0.0027,0.0632,1.0251,0.0049,0.0261,0.0405,-0.0319,0.0003,-0.0004,0.2835,17.0162,-45.4413,
10.4050,0.0017,0.0627,1.0253,0.0049,0.0261,0.0405,-0.0319,0.0003,-0.0004,0.2835,17.0162,-45.4413,
10.4050,0.0011,0.0616,1.0225,0.0049,0.0261,0.0405,-0.0319,0.0003,-0.0004,0.2835,17.0162,-45.4413,
10.4060,0.0011,0.0616,1.0225,0.0079,0.0108,-0.0459,-0.0319,0.0003,-0.0004,0.2835,17.0162,-45.4413,
10.4160,0.0011,0.0616,1.0225,0.0079,0.0108,-0.0459,-0.0319,0.0003,-0.0004,0.2373,17.0631,-45.4400,
10.4380,0.0024,0.0625,1.0228,0.0079,0.0108,-0.0459,-0.0319,0.0003,-0.0004,0.2373,17.0631,-45.4400,
10.4390,0.0024,0.0625,1.0228,0.0079,0.0108,-0.0459,-0.0182,-0.0030,-0.0001,0.2373,17.0631,-45.4400,
10.4820,0.0038,0.0632,1.0210,0.0079,0.0108,-0.0459,-0.0182,-0.0030,-0.0001,0.2373,17.0631,-45.4400,
10.4840,0.0038,0.0632,1.0210,0.0079,0.0108,-0.0459,-0.0209,0.0000,-0.0016,0.2373,17.0631,-45.4400,
10.4840,0.0039,0.0642,1.0216,0.0079,0.0108,-0.0459,-0.0209,0.0000,-0.0016,0.2373,17.0631,-45.4400,
10.4850,0.0032,0.0647,1.0232,0.0079,0.0108,-0.0459,-0.0209,0.0000,-0.0016,0.2373,17.0631,-45.4400,
10.4850,0.0032,0.0647,1.0232,0.0026,0.0158,-0.0018,-0.0209,0.0000,-0.0016,0.2373,17.0631,-45.4400,
10.4860,0.0032,0.0647,1.0232,0.0026,0.0158,-0.0018,-0.0209,0.0000,-0.0016,0.1919,17.1300,-45.4246,
10.5050,0.0032,0.0647,1.0232,0.0026,0.0158,-0.0018,-0.0279,0.0031,-0.0013,0.1919,17.1300,-45.4246,
10.5060,0.0032,0.0637,1.0272,0.0026,0.0158,-0.0018,-0.0279,0.0031,-0.0013,0.1919,17.1300,-45.4246,
10.5400,0.0032,0.0637,1.0272,0.0026,0.0158,-0.0018,-0.0151,0.0074,0.0024,0.1919,17.1300,-45.4246,
10.5410,0.0027,0.0612,1.0322,0.0026,0.0158,-0.0018,-0.0151,0.0074,0.0024,0.1919,17.1300,-45.4246,
10.5410,0.0038,0.0582,1.0300,0.0026,0.0158,-0.0018,-0.0151,0.0074,0.0024,0.1919,17.1300,-45.4246,
10.5420,0.0038,0.0582,1.0300,0.0195,0.0370,-0.0208,-0.0151,0.0074,0.0024,0.1919,17.1300,-45.4246,
10.5500,0.0038,0.0582,1.0300,0.0195,0.0370,-0.0208,-0.0151,0.0074,0.0024,0.1323,17.1461,-45.4514,
10.5710,0.0050,0.0574,1.0234,0.0195,0.0370,-0.0208,-0.0151,0.0074,0.0024,0.1323,17.1461,-45.4514,
10.6180,0.0050,0.0574,1.0234,0.0195,0.0370,-0.0208,-0.0093,0.0016,-0.0022,0.1323,17.1461,-45.4514,
10.6200,0.0026,0.0582,1.0175,0.0195,0.0370,-0.0208,-0.0093,0.0016,-0.0022,0.1323,17.1461,-45.4514,
10.6200,0.0005,0.0595,1.0141,0.0195,0.0370,-0.0208,-0.0093,0.0016,-0.0022,0.1323,17.1461,-45.4514,
10.6210,0.0005,0.0595,1.0141,0.0195,0.0370,-0.0208,-0.0093,0.0016,-0.0022,0.1338,17.1866,-45.4103,
10.6220,0.0005,0.0595,1.0141,0.0195,0.0370,-0.0208,-0.0298,-0.0067,0.0021,0.1338,17.1866,-45.4103,
10.6220,0.0027,0.0596,1.0188,0.0195,0.0370,-0.0208,-0.0298,-0.0067,0.0021,0.1338,17.1866,-45.4103,
10.6230,0.0027,0.0596,1.0188,0.0159,0.0172,0.0434,-0.0298,-0.0067,0.0021,0.1338,17.1866,-45.4103,
10.6390,0.0035,0.0599,1.0266,0.0159,0.0172,0.0434,-0.0298,-0.0067,0.0021,0.1338,17.1866,-45.4103,
10.6780,0.0035,0.0599,1.0266,0.0041,0.0036,-0.0640,-0.0298,-0.0067,0.0021,0.1338,17.1866,-45.4103,
10.6800,0.0013,0.0592,1.0339,0.0041,0.0036,-0.0640,-0.0298,-0.0067,0.0021,0.1338,17.1866,-45.4103,
10.6800,0.0005,0.0562,1.0372,0.0041,0.0036,-0.0640,-0.0298,-0.0067,0.0021,0.1338,17.1866,-45.4103,
10.6810,0.0005,0.0562,1.0372,0.0041,0.0036,-0.0640,-0.0185,0.0028,0.0005,0.1338,17.1866,-45.4103,
10.6830,0.0005,0.0562,1.0372,0.0041,0.0036,-0.0640,-0.0185,0.0028,0.0005,0.1480,17.2489,-45.3160,
10.7050,0.0029,0.0545,1.0379,0.0041,0.0036,-0.0640,-0.0185,0.0028,0.0005,0.1480,17.2489,-45.3160,
10.7060,0.0029,0.0545,1.0379,0.0041,0.0036,-0.0640,0.0185,-0.0021,0.0036,0.1480,17.2489,-45.3160,
10.7500,0.0083,0.0561,1.0210,0.0041,0.0036,-0.0640,0.0185,-0.0021,0.0036,0.1480,17.2489,-45.3160,
10.7520,0.0083,0.0561,1.0210,0.0041,0.0036,-0.0640,0.0133,-0.0247,-0.0044,0.1480,17.2489,-45.3160,
10.7520,0.0062,0.0589,1.0024,0.0041,0.0036,-0.0640,0.0133,-0.0247,-0.0044,0.1480,17.2489,-45.3160,
10.7530,0.0062,0.0589,1.0024,0.0041,0.0036,-0.0640,0.0133,-0.0247,-0.0044,0.1368,17.2459,-45.3936,
10.7540,0.0026,0.0605,1.0029,0.0041,0.0036,-0.0640,0.0133,-0.0247,-0.0044,0.1368,17.2459,-45.3936,
10.7550,0.0026,0.0605,1.0029,-0.0128,-0.0034,0.0826,0.0133,-0.0247,-0.0044,0.1368,17.2459,-45.3936,
10.8130,0.0050,0.0610,1.0145,-0.0128,-0.0034,0.0826,0.0133,-0.0247,-0.0044,0.1368,17.2459,-45.3936,
10.8140,0.0050,0.0610,1.0145,-0.0128,-0.0034,0.0826,-0.0673,-0.0042,-0.0013,0.1368,17.2459,-45.3936,
10.8150,0.0050,0.0610,1.0145,-0.0128,-0.0034,0.0826,-0.0557,0.0180,-0.0004,0.1368,17.2459,-45.3936,
10.8160,0.0050,0.0610,1.0145,0.0306,0.0293,-0.1084,-0.0557,0.0180,-0.0004,0.1368,17.2459,-45.3936,
10.8170,0.0044,0.0625,1.0338,0.0306,0.0293,-0.1084,-0.0557,0.0180,-0.0004,0.1368,17.2459,-45.3936,
10.8170,0.0018,0.0599,1.0526,0.0306,0.0293,-0.1084,-0.0557,0.0180,-0.0004,0.1368,17.2459,-45.3936,
10.8180,0.0018,0.0599,1.0526,0.0306,0.0293,-0.1084,-0.0557,0.0180,-0.0004,0.1043,17.3229,-45.3900,
10.8380,0.0029,0.0549,1.0454,0.0306,0.0293,-0.1084,-0.0557,0.0180,-0.0004,0.1043,17.3229,-45.3900,
10.8850,0.0041,0.0501,1.0263,0.0306,0.0293,-0.1084,-0.0557,0.0180,-0.0004,0.1043,17.3229,-45.3900,
10.8870,0.0041,0.0501,1.0263,0.0306,0.0293,-0.1084,-0.0557,0.0180,-0.0004,0.1214,17.4220,-45.3704,
10.8880,0.0041,0.0501,1.0263,0.0306,0.0293,-0.1084,0.0344,0.0180,-0.0004,0.1214,17.4220,-45.3704,
10.8890,0.0046,0.0512,1.0172,0.0306,0.0293,-0.1084,0.0344,0.0180,-0.0004,0.1214,17.4220,-45.3704,
10.8900,0.0046,0.0512,1.0172,0.0306,0.0293,-0.1084,0.0148,0.0180,-0.0010,0.1214,17.4220,-45.3704,
10.8900,0.0026,0.0541,1.0188,0.0306,0.0293,-0.1084,0.0148,0.0180,-0.0010,0.1214,17.4220,-45.3704,
10.8910,0.0026,0.0541,1.0188,0.0208,0.0322,0.1067,0.0148,0.0180,-0.0010,0.1214,17.4220,-45.3704,
10.9510,0.0026,0.0541,1.0188,0.0208,0.0322,0.1067,-0.0282,0.0009,0.0018,0.1214,17.4220,-45.3704,
10.9520,0.0021,0.0556,1.0200,0.0208,0.0322,0.1067,-0.0282,0.0009,0.0018,0.1214,17.4220,-45.3704,
10.9530,0.0006,0.0570,1.0219,0.0208,0.0322,0.1067,-0.0282,0.0009,0.0018,0.1214,17.4220,-45.3704,
10.9540,0.0024,0.0571,1.0235,0.0208,0.0322,0.1067,-0.0282,0.0009,0.0018,0.1214,17.4220,-45.3704,
10.9540,0.0024,0.0571,1.0235,0.0170,-0.0245,-0.0145,-0.0282,0.0009,0.0018,0.1214,17.4220,-45.3704,
10.9550,0.0024,0.0571,1.0235,0.0170,-0.0245,-0.0145,-0.0282,0.0009,0.0018,0.1222,17.4535,-45.3041,
10.9730,0.0024,0.0551,1.0277,0.0170,-0.0245,-0.0145,-0.0282,0.0009,0.0018,0.1222,17.4535,-45.3041,
10.9740,0.0024,0.0551,1.0277,0.0170,-0.0245,-0.0145,-0.0344,-0.0122,0.0008,0.1222,17.4535,-45.3041,
11.0170,0.0027,0.0551,1.0283,0.0170,-0.0245,-0.0145,-0.0344,-0.0122,0.0008,0.1222,17.4535,-45.3041,
11.0190,0.0027,0.0551,1.0283,0.0170,-0.0245,-0.0145,-0.0081,-0.0018,-0.0010,0.1222,17.4535,-45.3041,
11.0190,0.0027,0.0561,1.0246,0.0170,-0.0245,-0.0145,-0.0081,-0.0018,-0.0010,0.1222,17.4535,-45.3041,
11.0200,0.0027,0.0561,1.0246,0.0170,-0.0245,-0.0145,-0.0081,-0.0018,-0.0010,0.1230,17.4735,-45.2900,
11.0270,0.0027,0.0561,1.0246,-0.0022,0.0222,-0.0223,-0.0081,-0.0018,-0.0010,0.1230,17.4735,-45.2900,
11.0280,0.0028,0.0579,1.0223,-0.0022,0.0222,-0.0223,-0.0081,-0.0018,-0.0010,0.1230,17.4735,-45.2900,
11.0850,0.0044,0.0572,1.0283,-0.0022,0.0222,-0.0223,-0.0081,-0.0018,-0.0010,0.1230,17.4735,-45.2900,
11.0870,0.0044,0.0572,1.0283,-0.0022,0.0222,-0.0223,-0.0108,0.0092,-0.0007,0.1230,17.4735,-45.2900,
11.0870,0.0050,0.0532,1.0302,-0.0022,0.0222,-0.0223,-0.0108,0.0092,-0.0007,0.1230,17.4735,-45.2900,
11.0880,0.0050,0.0532,1.0302,-0.0022,0.0222,-0.0223,-0.0108,0.0092,-0.0007,0.1366,17.5039,-45.2748,
11.0890,0.0050,0.0532,1.0302,-0.0022,0.0222,-0.0223,-0.0194,0.0092,0.0011,0.1366,17.5039,-45.2748,
11.0900,0.0029,0.0517,1.0246,-0.0022,0.0222,-0.0223,-0.0194,0.0092,0.0011,0.1366,17.5039,-45.2748,
11.0900,0.0029,0.0517,1.0246,0.0109,0.0296,0.0060,-0.0194,0.0092,0.0011,0.1366,17.5039,-45.2748,
11.1060,0.0017,0.0538,1.0227,0.0109,0.0296,0.0060,-0.0194,0.0092,0.0011,0.1366,17.5039,-45.2748,
11.1510,0.0028,0.0539,1.0304,0.0109,0.0296,0.0060,-0.0194,0.0092,0.0011,0.1366,17.5039,-45.2748,
11.1520,0.0028,0.0539,1.0304,0.0109,0.0296,0.0060,-0.0319,-0.0046,0.0021,0.1366,17.5039,-45.2748,
11.1530,0.0024,0.0538,1.0345,0.0109,0.0296,0.0060,-0.0319,-0.0046,0.0021,0.1366,17.5039,-45.2748,
11.1530,0.0024,0.0538,1.0345,0.0109,0.0296,0.0060,-0.0319,-0.0046,0.0021,0.1519,17.5633,-45.2706,
11.1640,0.0024,0.0538,1.0345,0.0109,0.0296,0.0060,-0.0020,-0.0082,-0.0016,0.1519,17.5633,-45.2706,
11.1660,0.0035,0.0516,1.0308,0.0109,0.0296,0.0060,-0.0020,-0.0082,-0.0016,0.1519,17.5633,-45.2706,
11.1660,0.0035,0.0516,1.0308,0.0139,0.0167,0.0149,-0.0020,-0.0082,-0.0016,0.1519,17.5633,-45.2706,
11.2180,0.0037,0.0507,1.0222,0.0139,0.0167,0.0149,-0.0020,-0.0082,-0.0016,0.1519,17.5633,-45.2706,
11.2200,0.0037,0.0507,1.0222,0.0139,0.0167,0.0149,0.0038,-0.0052,-0.0028,0.1519,17.5633,-45.2706,
11.2200,0.0048,0.0505,1.0183,0.0139,0.0167,0.0149,0.0038,-0.0052,-0.0028,0.1519,17.5633,-45.2706,
11.2210,0.0048,0.0505,1.0183,0.0139,0.0167,0.0149,0.0038,-0.0052,-0.0028,0.1419,17.6017,-45.2814,
11.2220,0.0028,0.0500,1.0203,0.0139,0.0167,0.0149,0.0038,-0.0052,-0.0028,0.1419,17.6017,-45.2814,
11.2230,0.0028,0.0500,1.0203,0.0040,0.0132,0.0491,0.0038,-0.0052,-0.0028,0.1419,17.6017,-45.2814,
11.2860,0.0028,0.0500,1.0203,0.0040,0.0132,0.0491,0.0038,-0.0052,-0.0028,0.1431,17.6430,-45.2145,
11.2890,0.0028,0.0500,1.0203,0.0040,0.0132,0.0491,-0.0279,0.0028,0.0002,0.1431,17.6430,-45.2145,
11.2900,0.0028,0.0500,1.0203,0.0040,0.0132,0.0491,-0.0286,0.0061,0.0008,0.1431,17.6430,-45.2145,
11.2910,0.0023,0.0504,1.0266,0.0040,0.0132,0.0491,-0.0286,0.0061,0.0008,0.1431,17.6430,-45.2145,
11.2920,0.0032,0.0512,1.0311,0.0040,0.0132,0.0491,-0.0286,0.0061,0.0008,0.1431,17.6430,-45.2145,
11.2920,0.0026,0.0510,1.0280,0.0040,0.0132,0.0491,-0.0286,0.0061,0.0008,0.1431,17.6430,-45.2145,
11.3050,0.0018,0.0502,1.0219,0.0040,0.0132,0.0491,-0.0286,0.0061,0.0008,0.1431,17.6430,-45.2145,
11.3060,0.0018,0.0502,1.0219,0.0120,0.0047,-0.0432,-0.0286,0.0061,0.0008,0.1431,17.6430,-45.2145,
11.3510,0.0018,0.0502,1.0219,0.0120,0.0047,-0.0432,-0.0292,-0.0058,-0.0001,0.1431,17.6430,-45.2145,
11.3520,0.0028,0.0496,1.0178,0.0120,0.0047,-0.0432,-0.0292,-0.0058,-0.0001,0.1431,17.6430,-45.2145,
11.3530,0.0033,0.0497,1.0184,0.0120,0.0047,-0.0432,-0.0292,-0.0058,-0.0001,0.1431,17.6430,-45.2145,
11.3530,0.0033,0.0497,1.0184,0.0120,0.0047,-0.0432,-0.0292,-0.0058,-0.0001,0.1560,17.6639,-45.1871,
11.3580,0.0033,0.0497,1.0184,0.0120,0.0047,-0.0432,-0.0414,-0.0119,-0.0022,0.1560,17.6639,-45.1871,
11.3590,0.0048,0.0510,1.0245,0.0120,0.0047,-0.0432,-0.0414,-0.0119,-0.0022,0.1560,17.6639,-45.1871,
11.3600,0.0048,0.0510,1.0245,-0.0049,0.0303,0.0140,-0.0414,-0.0119,-0.0022,0.1560,17.6639,-45.1871,
11.4190,0.0048,0.0510,1.0245,-0.0049,0.0303,0.0140,-0.0206,0.0016,-0.0010,0.1560,17.6639,-45.1871,
11.4200,0.0048,0.0510,1.0245,-0.0049,0.0303,0.0140,-0.0206,0.0016,-0.0010,0.0962,17.6915,-45.1618,
11.4210,0.0046,0.0505,1.0295,-0.0049,0.0303,0.0140,-0.0206,0.0016,-0.0010,0.0962,17.6915,-45.1618,
11.4220,0.0048,0.0494,1.0304,-0.0049,0.0303,0.0140,-0.0206,0.0016,-0.0010,0.0962,17.6915,-45.1618,
11.4380,0.0048,0.0494,1.0304,0.0103,0.0272,-0.0367,-0.0206,0.0016,-0.0010,0.0962,17.6915,-45.1618,
11.4390,0.0048,0.0494,1.0304,0.0103,0.0272,-0.0367,-0.0014,0.0046,0.0002,0.0962,17.6915,-45.1618,
11.4400,0.0051,0.0490,1.0307,0.0103,0.0272,-0.0367,-0.0014,0.0046,0.0002,0.0962,17.6915,-45.1618,
11.4410,0.0044,0.0473,1.0308,0.0103,0.0272,-0.0367,-0.0014,0.0046,0.0002,0.0962,17.6915,-45.1618,
11.4840,0.0044,0.0473,1.0308,0.0103,0.0272,-0.0367,-0.0005,-0.0009,-0.0025,0.0962,17.6915,-45.1618,
11.4850,0.0055,0.0472,1.0283,0.0103,0.0272,-0.0367,-0.0005,-0.0009,-0.0025,0.0962,17.6915,-45.1618,
11.4860,0.0066,0.0463,1.0277,0.0103,0.0272,-0.0367,-0.0005,-0.0009,-0.0025,0.0962,17.6915,-45.1618,
11.4860,0.0066,0.0463,1.0277,0.0103,0.0272,-0.0367,-0.0005,-0.0009,-0.0025,0.0737,17.7190,-45.1865,
11.4960,0.0066,0.0463,1.0277,0.0150,0.0140,0.0457,-0.0005,-0.0009,-0.0025,0.0737,17.7190,-45.1865,
11.4970,0.0033,0.0455,1.0200,0.0150,0.0140,0.0457,-0.0005,-0.0009,-0.0025,0.0737,17.7190,-45.1865,
11.5520,0.0033,0.0455,1.0200,0.0150,0.0140,0.0457,-0.0005,-0.0009,-0.0025,0.0531,17.7863,-45.1959,
