
time,gFx,gFy,gFz,ax,ay,az,wx,wy,wz,Bx,By,Bz,
0.0650,0.0000,0.0000,0.0000,0.0000,0.0000,0.0000,-0.0074,0.0053,0.0002,0.0000,0.0000,0.0000,
0.0660,-0.0002,0.0695,1.0219,0.0000,0.0000,0.0000,-0.0074,0.0053,0.0002,0.0000,0.0000,0.0000,
0.0670,0.0007,0.0748,1.0213,0.0000,0.0000,0.0000,-0.0074,0.0053,0.0002,0.0000,0.0000,0.0000,
0.0970,0.0007,0.0748,1.0213,0.0000,0.0000,0.0000,-0.0034,-0.0002,-0.0004,0.0000,0.0000,0.0000,
0.0980,0.0023,0.0764,1.0200,0.0000,0.0000,0.0000,-0.0034,-0.0002,-0.0004,0.0000,0.0000,0.0000,
0.0980,0.0012,0.0736,1.0227,0.0000,0.0000,0.0000,-0.0034,-0.0002,-0.0004,0.0000,0.0000,0.0000,
0.1170,0.0012,0.0736,1.0227,0.0000,0.0000,0.0000,0.0171,-0.0118,-0.0010,0.0000,0.0000,0.0000,
0.1180,-0.0005,0.0731,1.0233,0.0000,0.0000,0.0000,0.0171,-0.0118,-0.0010,0.0000,0.0000,0.0000,
0.1530,-0.0006,0.0769,1.0222,0.0000,0.0000,0.0000,0.0171,-0.0118,-0.0010,0.0000,0.0000,0.0000,
0.1540,0.0006,0.0805,1.0228,0.0000,0.0000,0.0000,0.0171,-0.0118,-0.0010,0.0000,0.0000,0.0000,
0.1550,0.0006,0.0805,1.0228,0.0000,0.0000,0.0000,0.0247,-0.0127,0.0021,0.0000,0.0000,0.0000,
0.1550,0.0006,0.0805,1.0228,0.0000,0.0000,0.0000,0.0247,-0.0127,0.0021,0.0000,0.0000,0.0000,
0.1630,0.0006,0.0805,1.0228,0.0000,0.0000,0.0000,0.0247,-0.0127,0.0021,0.5024,16.8136,-45.3792,
0.1840,0.0041,0.0825,1.0261,0.0000,0.0000,0.0000,0.0247,-0.0127,0.0021,0.5024,16.8136,-45.3792,
0.2300,0.0041,0.0825,1.0261,0.0000,0.0000,0.0000,0.0165,0.0001,0.0021,0.5024,16.8136,-45.3792,
0.2320,0.0054,0.0789,1.0296,0.0000,0.0000,0.0000,0.0165,0.0001,0.0021,0.5024,16.8136,-45.3792,
0.2330,0.0038,0.0755,1.0311,0.0000,0.0000,0.0000,0.0165,0.0001,0.0021,0.5024,16.8136,-45.3792,
0.2340,0.0038,0.0755,1.0311,0.0000,0.0000,0.0000,0.0149,-0.0045,-0.0019,0.5024,16.8136,-45.3792,
0.2350,0.0011,0.0737,1.0286,0.0000,0.0000,0.0000,0.0149,-0.0045,-0.0019,0.5024,16.8136,-45.3792,
0.2350,0.0011,0.0737,1.0286,-0.0073,0.0095,0.0087,0.0149,-0.0045,-0.0019,0.5024,16.8136,-45.3792,
0.2360,0.0011,0.0737,1.0286,-0.0073,0.0095,0.0087,0.0149,-0.0045,-0.0019,0.3827,16.7100,-45.3721,
0.2510,-0.0011,0.0742,1.0277,-0.0073,0.0095,0.0087,0.0149,-0.0045,-0.0019,0.3827,16.7100,-45.3721,
0.2900,-0.0032,0.0741,1.0253,-0.0073,0.0095,0.0087,0.0149,-0.0045,-0.0019,0.3827,16.7100,-45.3721,
0.2910,-0.0032,0.0741,1.0253,-0.0073,0.0095,0.0087,0.0226,-0.0130,-0.0034,0.3827,16.7100,-45.3721,
0.2910,-0.0032,0.0741,1.0253,0.0140,-0.0066,0.0481,0.0226,-0.0130,-0.0034,0.3827,16.7100,-45.3721,
0.2920,-0.0043,0.0745,1.0227,0.0140,-0.0066,0.0481,0.0226,-0.0130,-0.0034,0.3827,16.7100,-45.3721,
0.2970,-0.0043,0.0745,1.0227,0.0140,-0.0066,0.0481,0.0226,-0.0130,-0.0034,0.3645,16.6254,-45.5493,
0.3180,-0.0077,0.0759,1.0163,0.0140,-0.0066,0.0481,0.0226,-0.0130,-0.0034,0.3645,16.6254,-45.5493,
0.3190,-0.0077,0.0759,1.0163,0.0140,-0.0066,0.0481,0.0268,-0.0136,-0.0099,0.3645,16.6254,-45.5493,
0.3640,-0.0077,0.0759,1.0163,0.0140,-0.0066,0.0481,0.0048,-0.0060,-0.0080,0.3645,16.6254,-45.5493,
0.3650,-0.0077,0.0759,1.0163,0.0140,-0.0066,0.0481,0.0048,-0.0060,-0.0080,0.3026,16.5464,-45.4879,
0.3670,-0.0068,0.0771,1.0142,0.0140,-0.0066,0.0481,0.0048,-0.0060,-0.0080,0.3026,16.5464,-45.4879,
0.3670,-0.0012,0.0776,1.0190,0.0140,-0.0066,0.0481,0.0048,-0.0060,-0.0080,0.3026,16.5464,-45.4879,
0.3680,0.0032,0.0805,1.0236,0.0140,-0.0066,0.0481,0.0048,-0.0060,-0.0080,0.3026,16.5464,-45.4879,
0.3680,0.0032,0.0805,1.0236,-0.0481,-0.0353,-0.0014,0.0048,-0.0060,-0.0080,0.3026,16.5464,-45.4879,
0.4250,0.0032,0.0805,1.0236,-0.0286,-0.0001,-0.0471,0.0048,-0.0060,-0.0080,0.3026,16.5464,-45.4879,
0.4260,0.0048,0.0814,1.0324,-0.0286,-0.0001,-0.0471,0.0048,-0.0060,-0.0080,0.3026,16.5464,-45.4879,
0.4270,0.0054,0.0785,1.0415,-0.0286,-0.0001,-0.0471,0.0048,-0.0060,-0.0080,0.3026,16.5464,-45.4879,
0.4270,0.0098,0.0747,1.0341,-0.0286,-0.0001,-0.0471,0.0048,-0.0060,-0.0080,0.3026,16.5464,-45.4879,
0.4280,0.0098,0.0747,1.0341,-0.0286,-0.0001,-0.0471,-0.0022,0.0120,-0.0114,0.3026,16.5464,-45.4879,
0.4280,0.0098,0.0747,1.0341,-0.0286,-0.0001,-0.0471,0.0271,0.0087,-0.0031,0.3026,16.5464,-45.4879,
0.4290,0.0098,0.0747,1.0341,-0.0286,-0.0001,-0.0471,0.0271,0.0087,-0.0031,0.3435,16.4849,-45.5108,
0.4500,0.0121,0.0752,1.0262,-0.0286,-0.0001,-0.0471,0.0271,0.0087,-0.0031,0.3435,16.4849,-45.5108,
0.4970,0.0106,0.0775,1.0113,-0.0286,-0.0001,-0.0471,0.0271,0.0087,-0.0031,0.3435,16.4849,-45.5108,
0.4980,0.0106,0.0775,1.0113,-0.0286,-0.0001,-0.0471,0.0348,0.0077,0.0021,0.3435,16.4849,-45.5108,
0.4980,0.0071,0.0824,0.9936,-0.0286,-0.0001,-0.0471,0.0348,0.0077,0.0021,0.3435,16.4849,-45.5108,
0.5000,0.0071,0.0824,0.9936,-0.0286,-0.0001,-0.0471,0.0348,0.0077,0.0021,0.2714,16.4144,-45.4972,
0.5080,0.0052,0.0883,0.9993,-0.0286,-0.0001,-0.0471,0.0348,0.0077,0.0021,0.2714,16.4144,-45.4972,
0.5090,0.0052,0.0883,0.9993,-0.0286,-0.0001,-0.0471,-0.0437,0.0102,0.0063,0.2714,16.4144,-45.4972,
0.5100,0.0052,0.0883,0.9993,0.0616,-0.0210,0.0970,-0.0437,0.0102,0.0063,0.2714,16.4144,-45.4972,
0.5620,0.0052,0.0883,0.9993,0.0616,-0.0210,0.0970,-0.0755,-0.0109,0.0115,0.2714,16.4144,-45.4972,
0.5630,0.0006,0.0915,1.0257,0.0616,-0.0210,0.0970,-0.0755,-0.0109,0.0115,0.2714,16.4144,-45.4972,
0.5630,0.0023,0.0916,1.0442,0.0616,-0.0210,0.0970,-0.0755,-0.0109,0.0115,0.2714,16.4144,-45.4972,
0.5640,0.0013,0.0859,1.0444,0.0616,-0.0210,0.0970,-0.0755,-0.0109,0.0115,0.2714,16.4144,-45.4972,
0.5640,0.0013,0.0859,1.0444,0.0638,0.0435,-0.1720,-0.0755,-0.0109,0.0115,0.2714,16.4144,-45.4972,
0.5650,0.0013,0.0859,1.0444,0.0638,0.0435,-0.1720,-0.0755,-0.0109,0.0115,0.2778,16.3993,-45.5126,
0.5840,-0.0006,0.0763,1.0382,0.0638,0.0435,-0.1720,-0.0755,-0.0109,0.0115,0.2778,16.3993,-45.5126,
0.5850,-0.0006,0.0763,1.0382,0.0638,0.0435,-0.1720,0.0140,0.0087,0.0124,0.2778,16.3993,-45.5126,
0.6300,-0.0040,0.0695,1.0326,0.0638,0.0435,-0.1720,0.0140,0.0087,0.0124,0.2778,16.3993,-45.5126,
0.6310,-0.0040,0.0695,1.0326,0.0638,0.0435,-0.1720,0.0574,0.0132,0.0204,0.2778,16.3993,-45.5126,
0.6320,-0.0040,0.0695,1.0326,0.0638,0.0435,-0.1720,0.0574,0.0132,0.0204,0.2814,16.3687,-45.5125,
0.6340,-0.0066,0.0698,1.0257,0.0638,0.0435,-0.1720,0.0574,0.0132,0.0204,0.2814,16.3687,-45.5125,
0.6410,-0.0054,0.0743,1.0212,0.0638,0.0435,-0.1720,0.0574,0.0132,0.0204,0.2814,16.3687,-45.5125,
0.6410,-0.0054,0.0743,1.0212,-0.0037,0.0946,0.1370,0.0574,0.0132,0.0204,0.2814,16.3687,-45.5125,
0.6960,-0.0054,0.0743,1.0212,-0.0037,0.0946,0.1370,0.0501,0.0193,0.0265,0.2814,16.3687,-45.5125,
0.6970,-0.0029,0.0793,1.0197,-0.0037,0.0946,0.1370,0.0501,0.0193,0.0265,0.2814,16.3687,-45.5125,
0.6970,-0.0029,0.0793,1.0197,-0.0037,0.0946,0.1370,0.0501,0.0193,0.0265,0.2182,16.3272,-45.5045,
0.6980,-0.0006,0.0824,1.0208,-0.0037,0.0946,0.1370,0.0501,0.0193,0.0265,0.2182,16.3272,-45.5045,
0.6980,0.0001,0.0821,1.0201,-0.0037,0.0946,0.1370,0.0501,0.0193,0.0265,0.2182,16.3272,-45.5045,
0.6990,0.0001,0.0821,1.0201,-0.0037,0.0946,0.1370,0.0244,0.0117,0.0167,0.2182,16.3272,-45.5045,
0.7010,0.0001,0.0821,1.0201,-0.0468,-0.0936,0.0350,0.0244,0.0117,0.0167,0.2182,16.3272,-45.5045,
0.7640,0.0001,0.0821,1.0201,-0.0468,-0.0936,0.0350,0.0045,0.0227,0.0176,0.2182,16.3272,-45.5045,
0.7650,0.0005,0.0826,1.0186,-0.0468,-0.0936,0.0350,0.0045,0.0227,0.0176,0.2182,16.3272,-45.5045,
0.7660,0.0009,0.0833,1.0185,-0.0468,-0.0936,0.0350,0.0045,0.0227,0.0176,0.2182,16.3272,-45.5045,
0.7680,0.0033,0.0838,1.0291,-0.0468,-0.0936,0.0350,0.0045,0.0227,0.0176,0.2182,16.3272,-45.5045,
0.7690,0.0033,0.0838,1.0291,-0.0468,-0.0936,0.0350,0.0045,0.0227,0.0176,0.2051,16.2845,-45.5975,
0.7770,0.0033,0.0838,1.0291,0.0011,-0.0080,-0.0371,0.0045,0.0227,0.0176,0.2051,16.2845,-45.5975,
0.7790,0.0033,0.0838,1.0291,0.0011,-0.0080,-0.0371,-0.0068,0.0361,0.0305,0.2051,16.2845,-45.5975,
0.7800,0.0056,0.0838,1.0297,0.0011,-0.0080,-0.0371,-0.0068,0.0361,0.0305,0.2051,16.2845,-45.5975,
0.8300,0.0056,0.0838,1.0297,0.0011,-0.0080,-0.0371,-0.0068,0.0361,0.0305,0.2281,16.2668,-45.5721,
0.8310,0.0056,0.0838,1.0297,0.0011,-0.0080,-0.0371,-0.0104,0.0288,0.0344,0.2281,16.2668,-45.5721,
0.8320,0.0055,0.0837,1.0260,0.0011,-0.0080,-0.0371,-0.0104,0.0288,0.0344,0.2281,16.2668,-45.5721,
0.8320,0.0030,0.0827,1.0242,0.0011,-0.0080,-0.0371,-0.0104,0.0288,0.0344,0.2281,16.2668,-45.5721,
0.8360,0.0024,0.0841,1.0255,0.0011,-0.0080,-0.0371,-0.0104,0.0288,0.0344,0.2281,16.2668,-45.5721,
0.8360,0.0024,0.0841,1.0255,0.0528,0.0158,0.0069,-0.0104,0.0288,0.0344,0.2281,16.2668,-45.5721,
0.8960,0.0024,0.0841,1.0255,0.0528,0.0158,0.0069,-0.0159,0.0114,0.0399,0.2281,16.2668,-45.5721,
0.8970,0.0024,0.0841,1.0255,0.0528,0.0158,0.0069,-0.0159,0.0114,0.0399,0.2891,16.2475,-45.6483,
0.8980,0.0024,0.0841,1.0255,0.0528,0.0158,0.0069,0.0012,0.0068,0.0412,0.2891,16.2475,-45.6483,
0.8990,0.0023,0.0848,1.0241,0.0528,0.0158,0.0069,0.0012,0.0068,0.0412,0.2891,16.2475,-45.6483,
0.8990,0.0015,0.0833,1.0250,0.0528,0.0158,0.0069,0.0012,0.0068,0.0412,0.2891,16.2475,-45.6483,
0.9000,0.0005,0.0819,1.0250,0.0528,0.0158,0.0069,0.0012,0.0068,0.0412,0.2891,16.2475,-45.6483,
0.9140,0.0005,0.0819,1.0250,0.0602,0.0227,0.0091,0.0012,0.0068,0.0412,0.2891,16.2475,-45.6483,
0.9150,-0.0028,0.0805,1.0241,0.0602,0.0227,0.0091,0.0012,0.0068,0.0412,0.2891,16.2475,-45.6483,
0.9630,-0.0028,0.0805,1.0241,0.0602,0.0227,0.0091,0.0143,0.0056,0.0363,0.2891,16.2475,-45.6483,
0.9650,-0.0051,0.0799,1.0235,0.0602,0.0227,0.0091,0.0143,0.0056,0.0363,0.2891,16.2475,-45.6483,
0.9650,-0.0068,0.0809,1.0252,0.0602,0.0227,0.0091,0.0143,0.0056,0.0363,0.2891,16.2475,-45.6483,
0.9660,-0.0068,0.0809,1.0252,0.0602,0.0227,0.0091,0.0143,0.0056,0.0363,0.3138,16.2588,-45.6339,
0.9720,-0.0068,0.0809,1.0252,0.0602,0.0227,0.0091,0.0143,0.0059,0.0341,0.3138,16.2588,-45.6339,
0.9730,-0.0075,0.0813,1.0249,0.0602,0.0227,0.0091,0.0143,0.0059,0.0341,0.3138,16.2588,-45.6339,
0.9730,-0.0075,0.0813,1.0249,0.0243,0.0041,0.0040,0.0143,0.0059,0.0341,0.3138,16.2588,-45.6339,
1.0320,-0.0075,0.0813,1.0249,0.0243,0.0041,0.0040,0.0143,0.0059,0.0341,0.4257,16.2805,-45.7185,
1.0330,-0.0079,0.0813,1.0249,0.0243,0.0041,0.0040,0.0143,0.0059,0.0341,0.4257,16.2805,-45.7185,
1.0330,-0.0088,0.0804,1.0230,0.0243,0.0041,0.0040,0.0143,0.0059,0.0341,0.4257,16.2805,-45.7185,
1.0350,-0.0088,0.0804,1.0230,0.0243,0.0041,0.0040,0.0052,0.0077,0.0341,0.4257,16.2805,-45.7185,
1.0500,-0.0088,0.0804,1.0230,-0.0340,-0.0174,0.0047,0.0052,0.0077,0.0341,0.4257,16.2805,-45.7185,
1.0510,-0.0088,0.0804,1.0230,-0.0340,-0.0174,0.0047,-0.0040,0.0163,0.0308,0.4257,16.2805,-45.7185,
1.0520,-0.0095,0.0796,1.0203,-0.0340,-0.0174,0.0047,-0.0040,0.0163,0.0308,0.4257,16.2805,-45.7185,
1.0530,-0.0088,0.0789,1.0186,-0.0340,-0.0174,0.0047,-0.0040,0.0163,0.0308,0.4257,16.2805,-45.7185,
1.0980,-0.0083,0.0777,1.0181,-0.0340,-0.0174,0.0047,-0.0040,0.0163,0.0308,0.4257,16.2805,-45.7185,
1.0980,-0.0083,0.0777,1.0181,-0.0340,-0.0174,0.0047,-0.0080,0.0233,0.0256,0.4257,16.2805,-45.7185,
1.0990,-0.0083,0.0777,1.0181,-0.0340,-0.0174,0.0047,-0.0080,0.0233,0.0256,0.4843,16.2558,-45.6538,
1.1000,-0.0061,0.0791,1.0200,-0.0340,-0.0174,0.0047,-0.0080,0.0233,0.0256,0.4843,16.2558,-45.6538,
1.1090,-0.0061,0.0791,1.0200,-0.0412,-0.0210,-0.0261,-0.0080,0.0233,0.0256,0.4843,16.2558,-45.6538,
1.1100,-0.0056,0.0811,1.0217,-0.0412,-0.0210,-0.0261,-0.0080,0.0233,0.0256,0.4843,16.2558,-45.6538,
1.1630,-0.0056,0.0811,1.0217,-0.0412,-0.0210,-0.0261,-0.0010,0.0218,0.0207,0.4843,16.2558,-45.6538,
1.1640,-0.0056,0.0811,1.0217,-0.0412,-0.0210,-0.0261,-0.0010,0.0218,0.0207,0.5455,16.2581,-45.6643,
1.1650,-0.0055,0.0824,1.0227,-0.0412,-0.0210,-0.0261,-0.0010,0.0218,0.0207,0.5455,16.2581,-45.6643,
1.1660,-0.0055,0.0829,1.0247,-0.0412,-0.0210,-0.0261,-0.0010,0.0218,0.0207,0.5455,16.2581,-45.6643,
1.1840,-0.0054,0.0829,1.0239,-0.0412,-0.0210,-0.0261,-0.0010,0.0218,0.0207,0.5455,16.2581,-45.6643,
1.1850,-0.0054,0.0829,1.0239,-0.0412,-0.0210,-0.0261,0.0067,0.0135,0.0195,0.5455,16.2581,-45.6643,
1.1870,-0.0044,0.0816,1.0234,-0.0412,-0.0210,-0.0261,0.0067,0.0135,0.0195,0.5455,16.2581,-45.6643,
1.1880,-0.0044,0.0816,1.0234,-0.0028,-0.0190,-0.0320,0.0067,0.0135,0.0195,0.5455,16.2581,-45.6643,
1.2290,-0.0060,0.0811,1.0233,-0.0028,-0.0190,-0.0320,0.0067,0.0135,0.0195,0.5455,16.2581,-45.6643,
1.2300,-0.0060,0.0811,1.0233,-0.0028,-0.0190,-0.0320,0.0064,0.0071,0.0127,0.5455,16.2581,-45.6643,
1.2310,-0.0060,0.0811,1.0233,-0.0028,-0.0190,-0.0320,0.0064,0.0071,0.0127,0.6881,16.2073,-45.6111,
1.2320,-0.0111,0.0813,1.0188,-0.0028,-0.0190,-0.0320,0.0064,0.0071,0.0127,0.6881,16.2073,-45.6111,
1.2460,-0.0109,0.0816,1.0145,-0.0028,-0.0190,-0.0320,0.0064,0.0071,0.0127,0.6881,16.2073,-45.6111,
1.2470,-0.0109,0.0816,1.0145,-0.0028,-0.0190,-0.0320,-0.0000,0.0050,0.0121,0.6881,16.2073,-45.6111,
1.2470,-0.0109,0.0816,1.0145,0.0133,0.0036,0.0047,-0.0000,0.0050,0.0121,0.6881,16.2073,-45.6111,
1.2960,-0.0109,0.0816,1.0145,0.0133,0.0036,0.0047,-0.0098,0.0053,0.0042,0.6881,16.2073,-45.6111,
1.2970,-0.0075,0.0811,1.0172,0.0133,0.0036,0.0047,-0.0098,0.0053,0.0042,0.6881,16.2073,-45.6111,
1.2980,-0.0078,0.0839,1.0222,0.0133,0.0036,0.0047,-0.0098,0.0053,0.0042,0.6881,16.2073,-45.6111,
1.2990,-0.0078,0.0839,1.0222,0.0133,0.0036,0.0047,-0.0098,0.0053,0.0042,0.7823,16.1646,-45.5462,
1.3170,-0.0098,0.0853,1.0313,0.0133,0.0036,0.0047,-0.0098,0.0053,0.0042,0.7823,16.1646,-45.5462,
1.3230,-0.0119,0.0820,1.0362,0.0133,0.0036,0.0047,-0.0098,0.0053,0.0042,0.7823,16.1646,-45.5462,
1.3260,-0.0119,0.0820,1.0362,0.0133,0.0036,0.0047,0.0186,0.0028,0.0014,0.7823,16.1646,-45.5462,
1.3270,-0.0119,0.0820,1.0362,-0.0210,-0.0033,-0.0434,0.0186,0.0028,0.0014,0.7823,16.1646,-45.5462,
1.3630,-0.0083,0.0776,1.0275,-0.0210,-0.0033,-0.0434,0.0186,0.0028,0.0014,0.7823,16.1646,-45.5462,
1.3640,-0.0083,0.0776,1.0275,-0.0210,-0.0033,-0.0434,0.0186,0.0028,0.0014,0.8671,16.1585,-45.5436,
1.3650,-0.0038,0.0791,1.0213,-0.0210,-0.0033,-0.0434,0.0186,0.0028,0.0014,0.8671,16.1585,-45.5436,
1.3650,-0.0038,0.0791,1.0213,-0.0210,-0.0033,-0.0434,0.0439,-0.0118,0.0042,0.8671,16.1585,-45.5436,
1.3830,-0.0055,0.0819,1.0092,-0.0210,-0.0033,-0.0434,0.0439,-0.0118,0.0042,0.8671,16.1585,-45.5436,
1.3840,-0.0055,0.0819,1.0092,-0.0197,-0.0009,0.0467,0.0439,-0.0118,0.0042,0.8671,16.1585,-45.5436,
1.4290,-0.0055,0.0819,1.0092,-0.0197,-0.0009,0.0467,-0.0013,-0.0091,-0.0050,0.8671,16.1585,-45.5436,
1.4300,-0.0042,0.0850,0.9905,-0.0197,-0.0009,0.0467,-0.0013,-0.0091,-0.0050,0.8671,16.1585,-45.5436,
1.4310,-0.0082,0.0897,1.0006,-0.0197,-0.0009,0.0467,-0.0013,-0.0091,-0.0050,0.8671,16.1585,-45.5436,
1.4310,-0.0082,0.0897,1.0006,-0.0197,-0.0009,0.0467,-0.0013,-0.0091,-0.0050,0.8553,16.1792,-45.4914,
1.4510,-0.0088,0.0918,1.0305,-0.0197,-0.0009,0.0467,-0.0013,-0.0091,-0.0050,0.8553,16.1792,-45.4914,
1.4520,-0.0088,0.0918,1.0305,-0.0197,-0.0009,0.0467,-0.0917,-0.0173,0.0008,0.8553,16.1792,-45.4914,
1.4600,-0.0023,0.0885,1.0467,-0.0197,-0.0009,0.0467,-0.0917,-0.0173,0.0008,0.8553,16.1792,-45.4914,
1.4610,-0.0023,0.0885,1.0467,0.0078,-0.0279,-0.0688,-0.0917,-0.0173,0.0008,0.8553,16.1792,-45.4914,
1.4960,-0.0013,0.0799,1.0406,0.0078,-0.0279,-0.0688,-0.0917,-0.0173,0.0008,0.8553,16.1792,-45.4914,
1.4970,-0.0013,0.0799,1.0406,0.0078,-0.0279,-0.0688,-0.0187,-0.0033,0.0027,0.8553,16.1792,-45.4914,
1.4980,-0.0013,0.0799,1.0406,0.0078,-0.0279,-0.0688,-0.0187,-0.0033,0.0027,0.8911,16.1608,-45.5041,
1.5190,-0.0033,0.0714,1.0338,0.0078,-0.0279,-0.0688,-0.0187,-0.0033,0.0027,0.8911,16.1608,-45.5041,
1.5200,-0.0033,0.0714,1.0338,0.0078,-0.0279,-0.0688,0.0549,0.0138,0.0005,0.8911,16.1608,-45.5041,
1.5200,-0.0033,0.0714,1.0338,-0.0019,0.0871,-0.0194,0.0549,0.0138,0.0005,0.8911,16.1608,-45.5041,
1.5210,-0.0071,0.0688,1.0236,-0.0019,0.0871,-0.0194,0.0549,0.0138,0.0005,0.8911,16.1608,-45.5041,
1.5630,-0.0078,0.0765,1.0162,-0.0019,0.0871,-0.0194,0.0549,0.0138,0.0005,0.8911,16.1608,-45.5041,
1.5640,-0.0082,0.0832,1.0139,-0.0019,0.0871,-0.0194,0.0549,0.0138,0.0005,0.8911,16.1608,-45.5041,
1.5650,-0.0082,0.0832,1.0139,-0.0019,0.0871,-0.0194,0.0531,0.0126,0.0073,0.8911,16.1608,-45.5041,
1.5650,-0.0082,0.0832,1.0139,-0.0019,0.0871,-0.0194,0.0531,0.0126,0.0073,0.9011,16.1446,-45.4149,
1.5840,-0.0075,0.0870,1.0163,-0.0019,0.0871,-0.0194,0.0531,0.0126,0.0073,0.9011,16.1446,-45.4149,
1.5960,-0.0067,0.0885,1.0200,-0.0019,0.0871,-0.0194,0.0531,0.0126,0.0073,0.9011,16.1446,-45.4149,
1.5970,-0.0067,0.0885,1.0200,-0.0019,0.0871,-0.0194,0.0116,0.0001,0.0082,0.9011,16.1446,-45.4149,
1.5980,-0.0067,0.0885,1.0200,0.0202,-0.0953,0.0729,0.0116,0.0001,0.0082,0.9011,16.1446,-45.4149,
1.6290,-0.0070,0.0866,1.0216,0.0202,-0.0953,0.0729,0.0116,0.0001,0.0082,0.9011,16.1446,-45.4149,
1.6300,-0.0070,0.0866,1.0216,0.0202,-0.0953,0.0729,0.0116,0.0001,0.0082,0.9397,16.1634,-45.4894,
1.6510,-0.0070,0.0866,1.0216,0.0202,-0.0953,0.0729,-0.0061,-0.0063,0.0030,0.9397,16.1634,-45.4894,
1.6520,-0.0088,0.0846,1.0203,0.0202,-0.0953,0.0729,-0.0061,-0.0063,0.0030,0.9397,16.1634,-45.4894,
1.6560,-0.0084,0.0833,1.0267,0.0202,-0.0953,0.0729,-0.0061,-0.0063,0.0030,0.9397,16.1634,-45.4894,
1.6570,-0.0084,0.0833,1.0267,-0.0099,0.0102,-0.0590,-0.0061,-0.0063,0.0030,0.9397,16.1634,-45.4894,
1.6960,-0.0084,0.0833,1.0267,-0.0099,0.0102,-0.0590,-0.0022,0.0010,0.0039,0.9397,16.1634,-45.4894,
1.6970,-0.0062,0.0833,1.0344,-0.0099,0.0102,-0.0590,-0.0022,0.0010,0.0039,0.9397,16.1634,-45.4894,
1.6980,-0.0035,0.0832,1.0297,-0.0099,0.0102,-0.0590,-0.0022,0.0010,0.0039,0.9397,16.1634,-45.4894,
1.6990,-0.0035,0.0832,1.0297,-0.0099,0.0102,-0.0590,-0.0022,0.0010,0.0039,1.0113,16.1482,-45.4493,
1.7180,-0.0070,0.0857,1.0201,-0.0099,0.0102,-0.0590,-0.0022,0.0010,0.0039,1.0113,16.1482,-45.4493,
1.7180,-0.0070,0.0857,1.0201,-0.0099,0.0102,-0.0590,0.0204,0.0053,-0.0010,1.0113,16.1482,-45.4493,
1.7350,-0.0070,0.0857,1.0201,-0.0133,0.0057,0.0171,0.0204,0.0053,-0.0010,1.0113,16.1482,-45.4493,
1.7350,-0.0065,0.0858,1.0189,-0.0133,0.0057,0.0171,0.0204,0.0053,-0.0010,1.0113,16.1482,-45.4493,
1.7630,-0.0067,0.0877,1.0214,-0.0133,0.0057,0.0171,0.0204,0.0053,-0.0010,1.0113,16.1482,-45.4493,
1.7630,-0.0067,0.0877,1.0214,-0.0133,0.0057,0.0171,0.0079,0.0010,0.0011,1.0113,16.1482,-45.4493,
1.7640,-0.0067,0.0877,1.0214,-0.0133,0.0057,0.0171,0.0079,0.0010,0.0011,1.0494,16.1683,-45.4853,
1.7840,-0.0057,0.0869,1.0210,-0.0133,0.0057,0.0171,0.0079,0.0010,0.0011,1.0494,16.1683,-45.4853,
1.7920,-0.0040,0.0858,1.0225,-0.0133,0.0057,0.0171,0.0079,0.0010,0.0011,1.0494,16.1683,-45.4853,
1.7930,-0.0040,0.0858,1.0225,-0.0133,0.0057,0.0171,0.0085,0.0038,0.0024,1.0494,16.1683,-45.4853,
1.7930,-0.0040,0.0858,1.0225,0.0118,-0.0040,0.0192,0.0085,0.0038,0.0024,1.0494,16.1683,-45.4853,
1.8290,-0.0038,0.0844,1.0240,0.0118,-0.0040,0.0192,0.0085,0.0038,0.0024,1.0494,16.1683,-45.4853,
1.8300,-0.0038,0.0844,1.0240,0.0118,-0.0040,0.0192,0.0085,0.0038,0.0024,1.0272,16.2061,-45.4965,
1.8510,-0.0038,0.0835,1.0255,0.0118,-0.0040,0.0192,0.0085,0.0038,0.0024,1.0272,16.2061,-45.4965,
1.8520,-0.0038,0.0835,1.0255,0.0118,-0.0040,0.0192,0.0125,-0.0011,-0.0007,1.0272,16.2061,-45.4965,
1.8530,-0.0060,0.0843,1.0224,0.0118,-0.0040,0.0192,0.0125,-0.0011,-0.0007,1.0272,16.2061,-45.4965,
1.8700,-0.0051,0.0859,1.0230,0.0118,-0.0040,0.0192,0.0125,-0.0011,-0.0007,1.0272,16.2061,-45.4965,
1.8710,-0.0051,0.0859,1.0230,0.0118,-0.0040,0.0192,0.0100,-0.0020,-0.0004,1.0272,16.2061,-45.4965,
1.8710,-0.0051,0.0859,1.0230,0.0144,0.0068,-0.0079,0.0100,-0.0020,-0.0004,1.0272,16.2061,-45.4965,
1.8960,-0.0055,0.0864,1.0228,0.0144,0.0068,-0.0079,0.0100,-0.0020,-0.0004,1.0272,16.2061,-45.4965,
1.8970,-0.0055,0.0864,1.0228,0.0144,0.0068,-0.0079,0.0100,-0.0020,-0.0004,1.0023,16.1952,-45.4981,
1.9180,-0.0072,0.0863,1.0228,0.0144,0.0068,-0.0079,0.0100,-0.0020,-0.0004,1.0023,16.1952,-45.4981,
1.9190,-0.0072,0.0863,1.0228,0.0144,0.0068,-0.0079,0.0024,0.0007,0.0039,1.0023,16.1952,-45.4981,
1.9300,-0.0072,0.0863,1.0228,0.0147,-0.0164,0.0116,0.0024,0.0007,0.0039,1.0023,16.1952,-45.4981,
1.9320,-0.0084,0.0847,1.0224,0.0147,-0.0164,0.0116,0.0024,0.0007,0.0039,1.0023,16.1952,-45.4981,
1.9620,-0.0084,0.0847,1.0224,0.0147,-0.0164,0.0116,-0.0000,0.0010,0.0042,1.0023,16.1952,-45.4981,
1.9630,-0.0078,0.0837,1.0210,0.0147,-0.0164,0.0116,-0.0000,0.0010,0.0042,1.0023,16.1952,-45.4981,
1.9640,-0.0078,0.0837,1.0210,0.0147,-0.0164,0.0116,-0.0000,0.0010,0.0042,1.0618,16.1684,-45.4977,
1.9840,-0.0078,0.0844,1.0192,0.0147,-0.0164,0.0116,-0.0000,0.0010,0.0042,1.0618,16.1684,-45.4977,
2.0070,-0.0071,0.0855,1.0216,0.0147,-0.0164,0.0116,-0.0000,0.0010,0.0042,1.0618,16.1684,-45.4977,
2.0080,-0.0061,0.0877,1.0214,0.0147,-0.0164,0.0116,-0.0000,0.0010,0.0042,1.0618,16.1684,-45.4977,
2.0080,-0.0061,0.0877,1.0214,-0.0049,-0.0063,-0.0030,-0.0000,0.0010,0.0042,1.0618,16.1684,-45.4977,
2.0090,-0.0061,0.0877,1.0214,-0.0049,-0.0063,-0.0030,0.0003,-0.0042,0.0018,1.0618,16.1684,-45.4977,
2.0300,-0.0061,0.0877,1.0214,-0.0049,-0.0063,-0.0030,0.0042,-0.0011,-0.0010,1.0618,16.1684,-45.4977,
2.0310,-0.0061,0.0880,1.0233,-0.0049,-0.0063,-0.0030,0.0042,-0.0011,-0.0010,1.0618,16.1684,-45.4977,
2.0310,-0.0061,0.0880,1.0233,-0.0049,-0.0063,-0.0030,0.0042,-0.0011,-0.0010,1.0364,16.1587,-45.4606,
2.0510,-0.0061,0.0882,1.0249,-0.0049,-0.0063,-0.0030,0.0042,-0.0011,-0.0010,1.0364,16.1587,-45.4606,
2.0660,-0.0050,0.0882,1.0258,-0.0049,-0.0063,-0.0030,0.0042,-0.0011,-0.0010,1.0364,16.1587,-45.4606,
2.0670,-0.0050,0.0882,1.0258,-0.0049,-0.0063,-0.0030,0.0045,0.0050,0.0011,1.0364,16.1587,-45.4606,
2.0670,-0.0050,0.0882,1.0258,-0.0093,-0.0065,-0.0156,0.0045,0.0050,0.0011,1.0364,16.1587,-45.4606,
2.0960,-0.0050,0.0882,1.0258,-0.0093,-0.0065,-0.0156,0.0045,0.0050,0.0011,1.0130,16.1552,-45.5387,
2.0980,-0.0048,0.0869,1.0261,-0.0093,-0.0065,-0.0156,0.0045,0.0050,0.0011,1.0130,16.1552,-45.5387,
2.1180,-0.0034,0.0868,1.0266,-0.0093,-0.0065,-0.0156,0.0045,0.0050,0.0011,1.0130,16.1552,-45.5387,
2.1190,-0.0034,0.0868,1.0266,-0.0093,-0.0065,-0.0156,0.0079,0.0102,0.0005,1.0130,16.1552,-45.5387,
2.1430,-0.0034,0.0868,1.0266,0.0096,0.0121,0.0214,0.0079,0.0102,0.0005,1.0130,16.1552,-45.5387,
2.1440,-0.0034,0.0868,1.0266,0.0096,0.0121,0.0214,0.0067,0.0117,0.0008,1.0130,16.1552,-45.5387,
2.1450,-0.0062,0.0860,1.0218,0.0096,0.0121,0.0214,0.0067,0.0117,0.0008,1.0130,16.1552,-45.5387,
2.1450,-0.0081,0.0872,1.0146,0.0096,0.0121,0.0214,0.0067,0.0117,0.0008,1.0130,16.1552,-45.5387,
2.1630,-0.0056,0.0875,1.0155,0.0096,0.0121,0.0214,0.0067,0.0117,0.0008,1.0130,16.1552,-45.5387,
2.1640,-0.0056,0.0875,1.0155,0.0096,0.0121,0.0214,0.0067,0.0117,0.0008,0.9263,16.1326,-45.5175,
2.1860,-0.0056,0.0875,1.0155,0.0096,0.0121,0.0214,-0.0074,0.0096,0.0045,0.9263,16.1326,-45.5175,
2.1870,-0.0033,0.0885,1.0192,0.0096,0.0121,0.0214,-0.0074,0.0096,0.0045,0.9263,16.1326,-45.5175,
2.2020,-0.0070,0.0898,1.0257,0.0096,0.0121,0.0214,-0.0074,0.0096,0.0045,0.9263,16.1326,-45.5175,
2.2030,-0.0070,0.0898,1.0257,0.0166,-0.0032,-0.0081,-0.0074,0.0096,0.0045,0.9263,16.1326,-45.5175,
2.2310,-0.0070,0.0898,1.0257,0.0166,-0.0032,-0.0081,0.0058,0.0160,0.0039,0.9263,16.1326,-45.5175,
2.2310,-0.0071,0.0876,1.0351,0.0166,-0.0032,-0.0081,0.0058,0.0160,0.0039,0.9263,16.1326,-45.5175,
2.2320,-0.0071,0.0876,1.0351,0.0166,-0.0032,-0.0081,0.0058,0.0160,0.0039,0.8166,16.1163,-45.5737,
2.2520,-0.0093,0.0831,1.0352,0.0166,-0.0032,-0.0081,0.0058,0.0160,0.0039,0.8166,16.1163,-45.5737,
2.2810,-0.0093,0.0831,1.0352,0.0233,0.0111,-0.0051,0.0058,0.0160,0.0039,0.8166,16.1163,-45.5737,
2.2820,-0.0043,0.0814,1.0278,0.0233,0.0111,-0.0051,0.0058,0.0160,0.0039,0.8166,16.1163,-45.5737,
2.2820,-0.0043,0.0814,1.0278,0.0233,0.0111,-0.0051,0.0351,-0.0020,0.0057,0.8166,16.1163,-45.5737,
2.2840,-0.0038,0.0849,1.0197,0.0233,0.0111,-0.0051,0.0351,-0.0020,0.0057,0.8166,16.1163,-45.5737,
2.2970,-0.0038,0.0849,1.0197,0.0233,0.0111,-0.0051,0.0351,-0.0020,0.0057,0.6938,16.0908,-45.5925,
2.3180,-0.0057,0.0898,0.9977,0.0233,0.0111,-0.0051,0.0351,-0.0020,0.0057,0.6938,16.0908,-45.5925,
2.3190,-0.0057,0.0898,0.9977,0.0233,0.0111,-0.0051,0.0180,-0.0140,-0.0041,0.6938,16.0908,-45.5925,
2.3380,-0.0057,0.0898,0.9977,0.0233,0.0111,-0.0051,-0.0816,-0.0259,0.0005,0.6938,16.0908,-45.5925,
2.3390,-0.0076,0.0907,0.9881,0.0233,0.0111,-0.0051,-0.0816,-0.0259,0.0005,0.6938,16.0908,-45.5925,
2.3400,-0.0125,0.0921,1.0135,0.0233,0.0111,-0.0051,-0.0816,-0.0259,0.0005,0.6938,16.0908,-45.5925,
2.3410,-0.0125,0.0921,1.0135,0.0098,-0.0496,0.0585,-0.0816,-0.0259,0.0005,0.6938,16.0908,-45.5925,
2.3630,-0.0088,0.0903,1.0411,0.0098,-0.0496,0.0585,-0.0816,-0.0259,0.0005,0.6938,16.0908,-45.5925,
2.3640,-0.0088,0.0903,1.0411,0.0098,-0.0496,0.0585,-0.0816,-0.0259,0.0005,0.6693,16.0901,-45.5805,
2.3850,-0.0048,0.0869,1.0475,0.0098,-0.0496,0.0585,-0.0816,-0.0259,0.0005,0.6693,16.0901,-45.5805,
2.3860,-0.0048,0.0869,1.0475,0.0098,-0.0496,0.0585,-0.0510,-0.0222,0.0036,0.6693,16.0901,-45.5805,
2.4180,-0.0048,0.0869,1.0475,0.0098,-0.0496,0.0585,0.0436,0.0126,-0.0044,0.6693,16.0901,-45.5805,
2.4190,-0.0051,0.0802,1.0396,0.0098,-0.0496,0.0585,0.0436,0.0126,-0.0044,0.6693,16.0901,-45.5805,
2.4200,-0.0055,0.0760,1.0283,0.0098,-0.0496,0.0585,0.0436,0.0126,-0.0044,0.6693,16.0901,-45.5805,
2.4200,-0.0055,0.0760,1.0283,-0.0326,0.0657,-0.1605,0.0436,0.0126,-0.0044,0.6693,16.0901,-45.5805,
2.4310,-0.0055,0.0760,1.0283,-0.0326,0.0657,-0.1605,0.0436,0.0126,-0.0044,0.5968,16.1073,-45.5563,
2.4520,-0.0062,0.0788,1.0183,-0.0326,0.0657,-0.1605,0.0436,0.0126,-0.0044,0.5968,16.1073,-45.5563,
2.4750,-0.0079,0.0853,1.0144,-0.0326,0.0657,-0.1605,0.0436,0.0126,-0.0044,0.5968,16.1073,-45.5563,
2.4760,-0.0079,0.0853,1.0144,-0.0326,0.0657,-0.1605,0.0461,0.0221,-0.0004,0.5968,16.1073,-45.5563,
2.4760,-0.0077,0.0902,1.0172,-0.0326,0.0657,-0.1605,0.0461,0.0221,-0.0004,0.5968,16.1073,-45.5563,
2.4770,-0.0077,0.0902,1.0172,0.0098,-0.0424,0.1589,0.0461,0.0221,-0.0004,0.5968,16.1073,-45.5563,
2.4960,-0.0051,0.0912,1.0224,0.0098,-0.0424,0.1589,0.0461,0.0221,-0.0004,0.5968,16.1073,-45.5563,
2.4970,-0.0051,0.0912,1.0224,0.0098,-0.0424,0.1589,0.0048,0.0108,0.0063,0.5968,16.1073,-45.5563,
2.4980,-0.0051,0.0912,1.0224,0.0098,-0.0424,0.1589,0.0048,0.0108,0.0063,0.5350,16.0845,-45.5727,
2.5190,-0.0039,0.0887,1.0260,0.0098,-0.0424,0.1589,0.0048,0.0108,0.0063,0.5350,16.0845,-45.5727,
2.5540,-0.0043,0.0861,1.0236,0.0098,-0.0424,0.1589,0.0048,0.0108,0.0063,0.5350,16.0845,-45.5727,
2.5550,-0.0043,0.0861,1.0236,0.0098,-0.0424,0.1589,-0.0000,0.0013,0.0008,0.5350,16.0845,-45.5727,
2.5560,-0.0043,0.0861,1.0236,0.0004,-0.0148,-0.0514,-0.0000,0.0013,0.0008,0.5350,16.0845,-45.5727,
2.5560,-0.0050,0.0866,1.0224,0.0004,-0.0148,-0.0514,-0.0000,0.0013,0.0008,0.5350,16.0845,-45.5727,
2.5640,-0.0050,0.0866,1.0224,0.0004,-0.0148,-0.0514,-0.0000,0.0013,0.0008,0.4855,16.0619,-45.6016,
2.5860,-0.0055,0.0875,1.0291,0.0004,-0.0148,-0.0514,-0.0000,0.0013,0.0008,0.4855,16.0619,-45.6016,
2.5870,-0.0055,0.0875,1.0291,0.0004,-0.0148,-0.0514,0.0064,0.0050,0.0014,0.4855,16.0619,-45.6016,
2.6110,-0.0028,0.0870,1.0296,0.0004,-0.0148,-0.0514,0.0064,0.0050,0.0014,0.4855,16.0619,-45.6016,
2.6120,-0.0028,0.0870,1.0296,0.0004,-0.0148,-0.0514,0.0186,0.0019,0.0018,0.4855,16.0619,-45.6016,
2.6130,-0.0056,0.0865,1.0221,0.0004,-0.0148,-0.0514,0.0186,0.0019,0.0018,0.4855,16.0619,-45.6016,
2.6130,-0.0056,0.0865,1.0221,0.0274,0.0016,0.0129,0.0186,0.0019,0.0018,0.4855,16.0619,-45.6016,
2.6310,-0.0056,0.0865,1.0221,0.0274,0.0016,0.0129,0.0186,0.0019,0.0018,0.4730,16.0732,-45.5371,
2.6530,-0.0089,0.0894,1.0169,0.0274,0.0016,0.0129,0.0186,0.0019,0.0018,0.4730,16.0732,-45.5371,
2.6550,-0.0087,0.0885,1.0207,0.0274,0.0016,0.0129,0.0186,0.0019,0.0018,0.4730,16.0732,-45.5371,
2.6550,-0.0087,0.0885,1.0207,0.0274,0.0016,0.0129,0.0045,-0.0036,0.0027,0.4730,16.0732,-45.5371,
2.6900,-0.0089,0.0899,1.0232,0.0274,0.0016,0.0129,0.0045,-0.0036,0.0027,0.4730,16.0732,-45.5371,
2.6900,-0.0089,0.0899,1.0232,0.0274,0.0016,0.0129,0.0052,-0.0008,0.0027,0.4730,16.0732,-45.5371,
2.6910,-0.0075,0.0897,1.0227,0.0274,0.0016,0.0129,0.0052,-0.0008,0.0027,0.4730,16.0732,-45.5371,
2.6920,-0.0075,0.0897,1.0227,0.0155,-0.0100,0.0249,0.0052,-0.0008,0.0027,0.4730,16.0732,-45.5371,
2.6960,-0.0075,0.0897,1.0227,0.0155,-0.0100,0.0249,0.0052,-0.0008,0.0027,0.5209,16.0443,-45.5886,
2.7180,-0.0065,0.0883,1.0238,0.0155,-0.0100,0.0249,0.0052,-0.0008,0.0027,0.5209,16.0443,-45.5886,
2.7490,-0.0065,0.0883,1.0238,-0.0147,0.0058,-0.0116,0.0052,-0.0008,0.0027,0.5209,16.0443,-45.5886,
2.7500,-0.0066,0.0876,1.0236,-0.0147,0.0058,-0.0116,0.0052,-0.0008,0.0027,0.5209,16.0443,-45.5886,
2.7510,-0.0066,0.0876,1.0236,-0.0147,0.0058,-0.0116,0.0103,-0.0036,-0.0010,0.5209,16.0443,-45.5886,
2.7520,-0.0062,0.0866,1.0235,-0.0147,0.0058,-0.0116,0.0103,-0.0036,-0.0010,0.5209,16.0443,-45.5886,
2.7630,-0.0062,0.0866,1.0235,-0.0147,0.0058,-0.0116,0.0103,-0.0036,-0.0010,0.5695,16.0469,-45.5739,
2.7880,-0.0062,0.0866,1.0235,-0.0147,0.0058,-0.0116,0.0070,-0.0045,-0.0013,0.5695,16.0469,-45.5739,
2.7890,-0.0067,0.0872,1.0236,-0.0147,0.0058,-0.0116,0.0070,-0.0045,-0.0013,0.5695,16.0469,-45.5739,
2.8270,-0.0067,0.0872,1.0236,0.0012,-0.0164,0.0086,0.0070,-0.0045,-0.0013,0.5695,16.0469,-45.5739,
2.8280,-0.0067,0.0872,1.0236,0.0012,-0.0164,0.0086,0.0012,0.0047,0.0008,0.5695,16.0469,-45.5739,
2.8290,-0.0067,0.0881,1.0251,0.0012,-0.0164,0.0086,0.0012,0.0047,0.0008,0.5695,16.0469,-45.5739,
2.8310,-0.0059,0.0892,1.0249,0.0012,-0.0164,0.0086,0.0012,0.0047,0.0008,0.5695,16.0469,-45.5739,
2.8310,-0.0053,0.0894,1.0249,0.0012,-0.0164,0.0086,0.0012,0.0047,0.0008,0.5695,16.0469,-45.5739,
2.8320,-0.0053,0.0894,1.0249,0.0012,-0.0164,0.0086,0.0012,0.0047,0.0008,0.6071,16.0571,-45.6105,
2.8540,-0.0053,0.0894,1.0249,0.0012,-0.0164,0.0086,0.0033,0.0093,0.0005,0.6071,16.0571,-45.6105,
2.8550,-0.0049,0.0886,1.0232,0.0012,-0.0164,0.0086,0.0033,0.0093,0.0005,0.6071,16.0571,-45.6105,
2.8850,-0.0049,0.0886,1.0232,0.0012,-0.0164,0.0086,0.0006,0.0001,-0.0010,0.6071,16.0571,-45.6105,
2.8870,-0.0049,0.0886,1.0232,0.0103,-0.0049,0.0175,0.0006,0.0001,-0.0010,0.6071,16.0571,-45.6105,
2.8870,-0.0048,0.0877,1.0223,0.0103,-0.0049,0.0175,0.0006,0.0001,-0.0010,0.6071,16.0571,-45.6105,
2.8880,-0.0038,0.0877,1.0214,0.0103,-0.0049,0.0175,0.0006,0.0001,-0.0010,0.6071,16.0571,-45.6105,
2.8980,-0.0038,0.0877,1.0214,0.0103,-0.0049,0.0175,0.0006,0.0001,-0.0010,0.6663,16.0198,-45.6364,
2.9180,-0.0035,0.0893,1.0216,0.0103,-0.0049,0.0175,0.0006,0.0001,-0.0010,0.6663,16.0198,-45.6364,
2.9640,-0.0039,0.0904,1.0225,0.0103,-0.0049,0.0175,0.0006,0.0001,-0.0010,0.6663,16.0198,-45.6364,
2.9650,-0.0068,0.0909,1.0232,0.0103,-0.0049,0.0175,0.0006,0.0001,-0.0010,0.6663,16.0198,-45.6364,
2.9660,-0.0076,0.0916,1.0238,0.0103,-0.0049,0.0175,0.0006,0.0001,-0.0010,0.6663,16.0198,-45.6364,
2.9660,-0.0076,0.0916,1.0238,0.0234,-0.0099,-0.0072,0.0006,0.0001,-0.0010,0.6663,16.0198,-45.6364,
2.9670,-0.0076,0.0916,1.0238,0.0234,-0.0099,-0.0072,-0.0000,-0.0014,-0.0010,0.6663,16.0198,-45.6364,
2.9670,-0.0076,0.0916,1.0238,0.0234,-0.0099,-0.0072,0.0036,0.0025,0.0021,0.6663,16.0198,-45.6364,
2.9680,-0.0076,0.0916,1.0238,0.0234,-0.0099,-0.0072,0.0036,0.0025,0.0021,0.7250,15.9951,-45.5716,
2.9840,-0.0082,0.0886,1.0235,0.0234,-0.0099,-0.0072,0.0036,0.0025,0.0021,0.7250,15.9951,-45.5716,
3.0220,-0.0082,0.0886,1.0235,0.0234,-0.0099,-0.0072,0.0052,-0.0030,0.0033,0.7250,15.9951,-45.5716,
3.0230,-0.0081,0.0880,1.0224,0.0234,-0.0099,-0.0072,0.0052,-0.0030,0.0033,0.7250,15.9951,-45.5716,
3.0230,-0.0076,0.0868,1.0234,0.0234,-0.0099,-0.0072,0.0052,-0.0030,0.0033,0.7250,15.9951,-45.5716,
3.0240,-0.0076,0.0868,1.0234,0.0089,0.0133,0.0011,0.0052,-0.0030,0.0033,0.7250,15.9951,-45.5716,
3.0320,-0.0076,0.0868,1.0234,0.0089,0.0133,0.0011,0.0052,-0.0030,0.0033,0.7859,15.9868,-45.6086,
3.0520,-0.0109,0.0881,1.0211,0.0089,0.0133,0.0011,0.0052,-0.0030,0.0033,0.7859,15.9868,-45.6086,
3.0540,-0.0109,0.0881,1.0211,0.0089,0.0133,0.0011,0.0082,-0.0026,-0.0007,0.7859,15.9868,-45.6086,
3.0970,-0.0109,0.0881,1.0211,0.0089,0.0133,0.0011,-0.0013,0.0056,0.0039,0.7859,15.9868,-45.6086,
3.0970,-0.0108,0.0892,1.0169,0.0089,0.0133,0.0011,-0.0013,0.0056,0.0039,0.7859,15.9868,-45.6086,
3.0980,-0.0065,0.0891,1.0201,0.0089,0.0133,0.0011,-0.0013,0.0056,0.0039,0.7859,15.9868,-45.6086,
3.0990,-0.0065,0.0891,1.0201,0.0089,0.0133,0.0011,-0.0013,0.0056,0.0039,0.8714,15.9791,-45.6574,
3.0990,-0.0042,0.0923,1.0239,0.0089,0.0133,0.0011,-0.0013,0.0056,0.0039,0.8714,15.9791,-45.6574,
3.1000,-0.0042,0.0923,1.0239,-0.0154,-0.0195,0.0013,-0.0013,0.0056,0.0039,0.8714,15.9791,-45.6574,
3.1580,-0.0042,0.0923,1.0239,-0.0154,-0.0195,0.0013,0.0030,0.0224,-0.0001,0.8714,15.9791,-45.6574,
3.1590,-0.0076,0.0931,1.0279,-0.0154,-0.0195,0.0013,0.0030,0.0224,-0.0001,0.8714,15.9791,-45.6574,
3.1600,-0.0073,0.0885,1.0356,-0.0154,-0.0195,0.0013,0.0030,0.0224,-0.0001,0.8714,15.9791,-45.6574,
3.1600,-0.0062,0.0831,1.0315,-0.0154,-0.0195,0.0013,0.0030,0.0224,-0.0001,0.8714,15.9791,-45.6574,
3.1610,-0.0062,0.0831,1.0315,-0.0002,0.0013,-0.0224,0.0030,0.0224,-0.0001,0.8714,15.9791,-45.6574,
3.1610,-0.0062,0.0831,1.0315,-0.0002,0.0013,-0.0224,0.0238,0.0141,0.0039,0.8714,15.9791,-45.6574,
3.1620,-0.0062,0.0831,1.0315,-0.0002,0.0013,-0.0224,0.0238,0.0141,0.0039,0.9183,15.9527,-45.6317,
3.1860,-0.0007,0.0841,1.0225,-0.0002,0.0013,-0.0224,0.0238,0.0141,0.0039,0.9183,15.9527,-45.6317,
3.2320,-0.0007,0.0841,1.0225,-0.0002,0.0013,-0.0224,0.0238,0.0141,0.0039,0.9414,15.9239,-45.6456,
3.2330,-0.0007,0.0841,1.0225,-0.0002,0.0013,-0.0224,0.0247,-0.0051,-0.0031,0.9414,15.9239,-45.6456,
3.2330,-0.0032,0.0876,1.0130,-0.0002,0.0013,-0.0224,0.0247,-0.0051,-0.0031,0.9414,15.9239,-45.6456,
3.2340,-0.0050,0.0924,0.9966,-0.0002,0.0013,-0.0224,0.0247,-0.0051,-0.0031,0.9414,15.9239,-45.6456,
3.2380,-0.0071,0.0951,0.9949,-0.0002,0.0013,-0.0224,0.0247,-0.0051,-0.0031,0.9414,15.9239,-45.6456,
3.2390,-0.0071,0.0951,0.9949,-0.0002,0.0013,-0.0224,-0.0431,-0.0194,-0.0047,0.9414,15.9239,-45.6456,
3.2390,-0.0071,0.0951,0.9949,0.0190,-0.0361,0.0721,-0.0431,-0.0194,-0.0047,0.9414,15.9239,-45.6456,
3.2960,-0.0111,0.0965,1.0245,0.0190,-0.0361,0.0721,-0.0431,-0.0194,-0.0047,0.9414,15.9239,-45.6456,
3.2970,-0.0111,0.0965,1.0245,0.0190,-0.0361,0.0721,-0.0807,-0.0362,0.0045,0.9414,15.9239,-45.6456,
3.2980,-0.0044,0.0931,1.0456,0.0190,-0.0361,0.0721,-0.0807,-0.0362,0.0045,0.9414,15.9239,-45.6456,
3.3000,-0.0022,0.0880,1.0445,0.0190,-0.0361,0.0721,-0.0807,-0.0362,0.0045,0.9414,15.9239,-45.6456,
3.3000,-0.0022,0.0880,1.0445,0.0159,0.0280,-0.1689,-0.0807,-0.0362,0.0045,0.9414,15.9239,-45.6456,
3.3000,-0.0022,0.0880,1.0445,0.0159,0.0280,-0.1689,-0.0807,-0.0362,0.0045,0.9898,15.9269,-45.6180,
3.3170,-0.0050,0.0797,1.0317,0.0159,0.0280,-0.1689,-0.0807,-0.0362,0.0045,0.9898,15.9269,-45.6180,
3.3180,-0.0050,0.0797,1.0317,0.0159,0.0280,-0.1689,0.0161,-0.0072,-0.0050,0.9898,15.9269,-45.6180,
3.3630,-0.0066,0.0778,1.0212,0.0159,0.0280,-0.1689,0.0161,-0.0072,-0.0050,0.9898,15.9269,-45.6180,
3.3650,-0.0066,0.0778,1.0212,0.0159,0.0280,-0.1689,0.0446,0.0135,-0.0010,0.9898,15.9269,-45.6180,
3.3660,-0.0086,0.0838,1.0131,0.0159,0.0280,-0.1689,0.0446,0.0135,-0.0010,0.9898,15.9269,-45.6180,
3.3660,-0.0086,0.0838,1.0131,0.0159,0.0280,-0.1689,0.0446,0.0135,-0.0010,1.0603,15.8925,-45.5663,
3.3730,-0.0086,0.0838,1.0131,-0.0049,0.0269,0.1419,0.0446,0.0135,-0.0010,1.0603,15.8925,-45.5663,
3.3740,-0.0092,0.0890,1.0118,-0.0049,0.0269,0.1419,0.0446,0.0135,-0.0010,1.0603,15.8925,-45.5663,
3.4310,-0.0092,0.0890,1.0118,-0.0049,0.0269,0.1419,0.0155,0.0148,0.0073,1.0603,15.8925,-45.5663,
3.4330,-0.0082,0.0923,1.0183,-0.0049,0.0269,0.1419,0.0155,0.0148,0.0073,1.0603,15.8925,-45.5663,
3.4330,-0.0060,0.0927,1.0239,-0.0049,0.0269,0.1419,0.0155,0.0148,0.0073,1.0603,15.8925,-45.5663,
3.4340,-0.0060,0.0927,1.0239,-0.0049,0.0269,0.1419,0.0155,0.0148,0.0073,1.0722,15.8938,-45.5401,
3.4350,-0.0060,0.0927,1.0239,-0.0049,0.0269,0.1419,0.0030,0.0010,0.0014,1.0722,15.8938,-45.5401,
3.4360,-0.0035,0.0909,1.0250,-0.0049,0.0269,0.1419,0.0030,0.0010,0.0014,1.0722,15.8938,-45.5401,
3.4360,-0.0035,0.0909,1.0250,-0.0110,-0.0632,-0.0514,0.0030,0.0010,0.0014,1.0722,15.8938,-45.5401,
3.4520,-0.0051,0.0886,1.0228,-0.0110,-0.0632,-0.0514,0.0030,0.0010,0.0014,1.0722,15.8938,-45.5401,
3.4970,-0.0061,0.0883,1.0227,-0.0110,-0.0632,-0.0514,0.0030,0.0010,0.0014,1.0722,15.8938,-45.5401,
3.4980,-0.0061,0.0883,1.0227,-0.0110,-0.0632,-0.0514,0.0030,0.0010,0.0014,1.0843,15.8723,-45.6181,
3.4990,-0.0061,0.0883,1.0227,-0.0110,-0.0632,-0.0514,0.0055,-0.0011,-0.0034,1.0843,15.8723,-45.6181,
3.5000,-0.0035,0.0886,1.0280,-0.0110,-0.0632,-0.0514,0.0055,-0.0011,-0.0034,1.0843,15.8723,-45.6181,
3.5100,-0.0035,0.0886,1.0280,-0.0110,-0.0632,-0.0514,0.0094,0.0068,0.0021,1.0843,15.8723,-45.6181,
3.5110,-0.0011,0.0891,1.0252,-0.0110,-0.0632,-0.0514,0.0094,0.0068,0.0021,1.0843,15.8723,-45.6181,
3.5120,-0.0011,0.0891,1.0252,0.0055,0.0177,0.0010,0.0094,0.0068,0.0021,1.0843,15.8723,-45.6181,
3.5650,-0.0011,0.0891,1.0252,0.0055,0.0177,0.0010,0.0110,0.0019,0.0011,1.0843,15.8723,-45.6181,
3.5670,-0.0046,0.0894,1.0192,0.0055,0.0177,0.0010,0.0110,0.0019,0.0011,1.0843,15.8723,-45.6181,
3.5680,-0.0086,0.0913,1.0167,0.0055,0.0177,0.0010,0.0110,0.0019,0.0011,1.0843,15.8723,-45.6181,
3.5690,-0.0086,0.0913,1.0167,0.0055,0.0177,0.0010,0.0110,0.0019,0.0011,1.0962,15.8847,-45.5527,
3.5700,-0.0079,0.0925,1.0200,0.0055,0.0177,0.0010,0.0110,0.0019,0.0011,1.0962,15.8847,-45.5527,
3.5700,-0.0079,0.0925,1.0200,0.0262,-0.0170,0.0212,0.0110,0.0019,0.0011,1.0962,15.8847,-45.5527,
3.6310,-0.0079,0.0925,1.0200,0.0262,-0.0170,0.0212,0.0082,-0.0011,0.0033,1.0962,15.8847,-45.5527,
3.6320,-0.0067,0.0929,1.0228,0.0262,-0.0170,0.0212,0.0082,-0.0011,0.0033,1.0962,15.8847,-45.5527,
3.6320,-0.0062,0.0914,1.0222,0.0262,-0.0170,0.0212,0.0082,-0.0011,0.0033,1.0962,15.8847,-45.5527,
3.6330,-0.0043,0.0890,1.0217,0.0262,-0.0170,0.0212,0.0082,-0.0011,0.0033,1.0962,15.8847,-45.5527,
3.6330,-0.0043,0.0890,1.0217,0.0262,-0.0170,0.0212,0.0082,-0.0011,0.0033,1.0944,15.8670,-45.4896,
3.6340,-0.0043,0.0890,1.0217,0.0262,-0.0170,0.0212,0.0119,-0.0057,0.0002,1.0944,15.8670,-45.4896,
3.6450,-0.0043,0.0890,1.0217,-0.0071,0.0049,-0.0293,0.0119,-0.0057,0.0002,1.0944,15.8670,-45.4896,
3.6460,-0.0048,0.0882,1.0222,-0.0071,0.0049,-0.0293,0.0119,-0.0057,0.0002,1.0944,15.8670,-45.4896,
3.6970,-0.0048,0.0882,1.0222,-0.0071,0.0049,-0.0293,0.0070,-0.0085,-0.0010,1.0944,15.8670,-45.4896,
3.6980,-0.0057,0.0885,1.0205,-0.0071,0.0049,-0.0293,0.0070,-0.0085,-0.0010,1.0944,15.8670,-45.4896,
3.6980,-0.0057,0.0885,1.0205,-0.0071,0.0049,-0.0293,0.0070,-0.0085,-0.0010,1.0943,15.8560,-45.5288,
3.6990,-0.0067,0.0892,1.0217,-0.0071,0.0049,-0.0293,0.0070,-0.0085,-0.0010,1.0943,15.8560,-45.5288,
3.7040,-0.0067,0.0899,1.0227,-0.0071,0.0049,-0.0293,0.0070,-0.0085,-0.0010,1.0943,15.8560,-45.5288,
3.7050,-0.0067,0.0899,1.0227,-0.0071,0.0049,-0.0293,0.0012,-0.0002,0.0021,1.0943,15.8560,-45.5288,
3.7060,-0.0067,0.0899,1.0227,0.0064,-0.0146,-0.0007,0.0012,-0.0002,0.0021,1.0943,15.8560,-45.5288,
3.7670,-0.0067,0.0899,1.0227,0.0064,-0.0146,-0.0007,0.0039,0.0071,0.0014,1.0943,15.8560,-45.5288,
3.7690,-0.0075,0.0903,1.0235,0.0064,-0.0146,-0.0007,0.0039,0.0071,0.0014,1.0943,15.8560,-45.5288,
3.7700,-0.0067,0.0907,1.0208,0.0064,-0.0146,-0.0007,0.0039,0.0071,0.0014,1.0943,15.8560,-45.5288,
3.7710,-0.0064,0.0893,1.0206,0.0064,-0.0146,-0.0007,0.0039,0.0071,0.0014,1.0943,15.8560,-45.5288,
3.7710,-0.0064,0.0893,1.0206,0.0064,-0.0146,-0.0007,0.0039,0.0071,0.0014,1.0839,15.9066,-45.4618,
3.7840,-0.0050,0.0901,1.0206,0.0064,-0.0146,-0.0007,0.0039,0.0071,0.0014,1.0839,15.9066,-45.4618,
3.7850,-0.0050,0.0901,1.0206,0.0064,-0.0146,-0.0007,0.0003,0.0025,-0.0010,1.0839,15.9066,-45.4618,
3.7860,-0.0050,0.0901,1.0206,-0.0052,-0.0189,-0.0023,0.0003,0.0025,-0.0010,1.0839,15.9066,-45.4618,
3.8310,-0.0050,0.0901,1.0206,-0.0052,-0.0189,-0.0023,0.0003,0.0025,-0.0010,1.0354,15.9036,-45.4894,
3.8340,-0.0050,0.0901,1.0206,-0.0052,-0.0189,-0.0023,-0.0028,-0.0030,-0.0001,1.0354,15.9036,-45.4894,
3.8350,-0.0039,0.0909,1.0207,-0.0052,-0.0189,-0.0023,-0.0028,-0.0030,-0.0001,1.0354,15.9036,-45.4894,
3.8360,-0.0035,0.0920,1.0205,-0.0052,-0.0189,-0.0023,-0.0028,-0.0030,-0.0001,1.0354,15.9036,-45.4894,
3.8430,-0.0035,0.0920,1.0205,0.0001,-0.0111,-0.0093,-0.0028,-0.0030,-0.0001,1.0354,15.9036,-45.4894,
3.8440,-0.0032,0.0923,1.0223,0.0001,-0.0111,-0.0093,-0.0028,-0.0030,-0.0001,1.0354,15.9036,-45.4894,
3.8980,-0.0032,0.0923,1.0223,0.0001,-0.0111,-0.0093,0.0009,0.0010,0.0018,1.0354,15.9036,-45.4894,
3.9000,-0.0032,0.0923,1.0223,0.0001,-0.0111,-0.0093,0.0009,0.0010,0.0018,1.0117,15.9009,-45.5418,
3.9010,-0.0039,0.0924,1.0252,0.0001,-0.0111,-0.0093,0.0009,0.0010,0.0018,1.0117,15.9009,-45.5418,
3.9020,-0.0051,0.0929,1.0277,0.0001,-0.0111,-0.0093,0.0009,0.0010,0.0018,1.0117,15.9009,-45.5418,
3.9190,-0.0062,0.0907,1.0277,0.0001,-0.0111,-0.0093,0.0009,0.0010,0.0018,1.0117,15.9009,-45.5418,
3.9200,-0.0062,0.0907,1.0277,0.0001,-0.0111,-0.0093,0.0091,-0.0017,0.0027,1.0117,15.9009,-45.5418,
3.9200,-0.0039,0.0899,1.0258,0.0001,-0.0111,-0.0093,0.0091,-0.0017,0.0027,1.0117,15.9009,-45.5418,
3.9210,-0.0039,0.0899,1.0258,0.0241,0.0055,-0.0034,0.0091,-0.0017,0.0027,1.0117,15.9009,-45.5418,
3.9630,-0.0054,0.0905,1.0195,0.0241,0.0055,-0.0034,0.0091,-0.0017,0.0027,1.0117,15.9009,-45.5418,
3.9650,-0.0054,0.0905,1.0195,0.0241,0.0055,-0.0034,0.0103,-0.0066,-0.0001,1.0117,15.9009,-45.5418,
3.9650,-0.0054,0.0905,1.0195,0.0241,0.0055,-0.0034,0.0103,-0.0066,-0.0001,0.9880,15.9092,-45.5549,
3.9660,-0.0084,0.0913,1.0139,0.0241,0.0055,-0.0034,0.0103,-0.0066,-0.0001,0.9880,15.9092,-45.5549,
3.9770,-0.0084,0.0913,1.0139,0.0037,-0.0058,0.0437,0.0103,-0.0066,-0.0001,0.9880,15.9092,-45.5549,
3.9790,-0.0079,0.0892,1.0164,0.0037,-0.0058,0.0437,0.0103,-0.0066,-0.0001,0.9880,15.9092,-45.5549,
3.9790,-0.0079,0.0892,1.0164,0.0037,-0.0058,0.0437,-0.0086,-0.0039,0.0030,0.9880,15.9092,-45.5549,
4.0310,-0.0079,0.0892,1.0164,0.0037,-0.0058,0.0437,-0.0107,0.0080,0.0018,0.9880,15.9092,-45.5549,
4.0320,-0.0034,0.0914,1.0200,0.0037,-0.0058,0.0437,-0.0107,0.0080,0.0018,0.9880,15.9092,-45.5549,
4.0320,-0.0042,0.0930,1.0211,0.0037,-0.0058,0.0437,-0.0107,0.0080,0.0018,0.9880,15.9092,-45.5549,
4.0330,-0.0042,0.0930,1.0211,0.0037,-0.0058,0.0437,-0.0107,0.0080,0.0018,0.9267,15.9073,-45.5315,
4.0510,-0.0053,0.0921,1.0255,0.0037,-0.0058,0.0437,-0.0107,0.0080,0.0018,0.9267,15.9073,-45.5315,
4.0570,-0.0078,0.0885,1.0354,0.0037,-0.0058,0.0437,-0.0107,0.0080,0.0018,0.9267,15.9073,-45.5315,
4.0580,-0.0078,0.0885,1.0354,0.0037,-0.0058,0.0437,0.0042,0.0068,0.0014,0.9267,15.9073,-45.5315,
4.0580,-0.0078,0.0885,1.0354,-0.0116,-0.0068,-0.0486,0.0042,0.0068,0.0014,0.9267,15.9073,-45.5315,
4.0980,-0.0021,0.0857,1.0306,-0.0116,-0.0068,-0.0486,0.0042,0.0068,0.0014,0.9267,15.9073,-45.5315,
4.0990,-0.0021,0.0857,1.0306,-0.0116,-0.0068,-0.0486,0.0042,0.0068,0.0014,0.8421,15.9125,-45.5598,
4.1000,0.0009,0.0886,1.0170,-0.0116,-0.0068,-0.0486,0.0042,0.0068,0.0014,0.8421,15.9125,-45.5598,
4.1000,0.0009,0.0886,1.0170,-0.0116,-0.0068,-0.0486,0.0296,-0.0146,0.0011,0.8421,15.9125,-45.5598,
4.1160,0.0009,0.0886,1.0170,0.0039,-0.0046,0.0397,0.0296,-0.0146,0.0011,0.8421,15.9125,-45.5598,
4.1170,-0.0031,0.0909,1.0080,0.0039,-0.0046,0.0397,0.0296,-0.0146,0.0011,0.8421,15.9125,-45.5598,
4.1640,-0.0031,0.0909,1.0080,0.0039,-0.0046,0.0397,-0.0138,-0.0121,-0.0047,0.8421,15.9125,-45.5598,
4.1660,-0.0048,0.0952,1.0021,0.0039,-0.0046,0.0397,-0.0138,-0.0121,-0.0047,0.8421,15.9125,-45.5598,
4.1670,-0.0066,0.0974,1.0141,0.0039,-0.0046,0.0397,-0.0138,-0.0121,-0.0047,0.8421,15.9125,-45.5598,
4.1680,-0.0066,0.0974,1.0141,0.0039,-0.0046,0.0397,-0.0138,-0.0121,-0.0047,0.7933,15.8993,-45.6009,
4.1860,-0.0066,0.0974,1.0141,0.0039,-0.0046,0.0397,-0.0681,-0.0115,0.0024,0.7933,15.8993,-45.6009,
4.1870,-0.0056,0.0971,1.0338,0.0039,-0.0046,0.0397,-0.0681,-0.0115,0.0024,0.7933,15.8993,-45.6009,
4.1920,-0.0056,0.0971,1.0338,0.0260,-0.0162,-0.0528,-0.0681,-0.0115,0.0024,0.7933,15.8993,-45.6009,
4.1930,-0.0010,0.0941,1.0390,0.0260,-0.0162,-0.0528,-0.0681,-0.0115,0.0024,0.7933,15.8993,-45.6009,
4.2300,-0.0010,0.0941,1.0390,0.0260,-0.0162,-0.0528,-0.0110,0.0065,-0.0013,0.7933,15.8993,-45.6009,
4.2310,-0.0029,0.0858,1.0321,0.0260,-0.0162,-0.0528,-0.0110,0.0065,-0.0013,0.7933,15.8993,-45.6009,
4.2320,-0.0029,0.0858,1.0321,0.0260,-0.0162,-0.0528,-0.0110,0.0065,-0.0013,0.6966,15.9150,-45.5905,
4.2530,-0.0038,0.0787,1.0251,0.0260,-0.0162,-0.0528,-0.0110,0.0065,-0.0013,0.6966,15.9150,-45.5905,
4.2540,-0.0038,0.0787,1.0251,0.0260,-0.0162,-0.0528,0.0223,0.0209,0.0014,0.6966,15.9150,-45.5905,
4.2550,-0.0049,0.0810,1.0175,0.0260,-0.0162,-0.0528,0.0223,0.0209,0.0014,0.6966,15.9150,-45.5905,
4.2550,-0.0049,0.0810,1.0175,-0.0012,0.0669,0.0266,0.0223,0.0209,0.0014,0.6966,15.9150,-45.5905,
4.2980,-0.0049,0.0810,1.0175,-0.0012,0.0669,0.0266,0.0223,0.0209,0.0014,0.6968,15.9036,-45.6426,
4.3000,-0.0049,0.0810,1.0175,-0.0012,0.0669,0.0266,0.0107,0.0093,0.0042,0.6968,15.9036,-45.6426,
4.3010,-0.0071,0.0849,1.0148,-0.0012,0.0669,0.0266,0.0107,0.0093,0.0042,0.6968,15.9036,-45.6426,
4.3010,-0.0073,0.0899,1.0197,-0.0012,0.0669,0.0266,0.0107,0.0093,0.0042,0.6968,15.9036,-45.6426,
4.3190,-0.0050,0.0935,1.0238,-0.0012,0.0669,0.0266,0.0107,0.0093,0.0042,0.6968,15.9036,-45.6426,
4.3290,-0.0050,0.0935,1.0238,0.0120,-0.0741,0.0107,0.0107,0.0093,0.0042,0.6968,15.9036,-45.6426,
4.3310,-0.0031,0.0913,1.0262,0.0120,-0.0741,0.0107,0.0107,0.0093,0.0042,0.6968,15.9036,-45.6426,
4.3310,-0.0031,0.0913,1.0262,0.0120,-0.0741,0.0107,-0.0028,-0.0017,0.0021,0.6968,15.9036,-45.6426,
4.3640,-0.0031,0.0913,1.0262,0.0120,-0.0741,0.0107,-0.0028,-0.0017,0.0021,0.7439,15.8767,-45.6297,
4.3660,-0.0039,0.0897,1.0236,0.0120,-0.0741,0.0107,-0.0028,-0.0017,0.0021,0.7439,15.8767,-45.6297,
4.3850,-0.0045,0.0893,1.0205,0.0120,-0.0741,0.0107,-0.0028,-0.0017,0.0021,0.7439,15.8767,-45.6297,
4.3870,-0.0045,0.0893,1.0205,0.0120,-0.0741,0.0107,-0.0046,-0.0011,-0.0019,0.7439,15.8767,-45.6297,
4.3870,-0.0051,0.0902,1.0233,0.0120,-0.0741,0.0107,-0.0046,-0.0011,-0.0019,0.7439,15.8767,-45.6297,
4.3880,-0.0051,0.0902,1.0233,-0.0023,0.0116,-0.0019,-0.0046,-0.0011,-0.0019,0.7439,15.8767,-45.6297,
4.4310,-0.0051,0.0902,1.0233,-0.0023,0.0116,-0.0019,-0.0095,0.0123,0.0051,0.7439,15.8767,-45.6297,
4.4330,-0.0051,0.0902,1.0233,-0.0023,0.0116,-0.0019,-0.0095,0.0123,0.0051,0.7439,15.8767,-45.6297,
4.4330,-0.0032,0.0886,1.0249,-0.0023,0.0116,-0.0019,-0.0095,0.0123,0.0051,0.7439,15.8767,-45.6297,
4.4340,-0.0039,0.0877,1.0206,-0.0023,0.0116,-0.0019,-0.0095,0.0123,0.0051,0.7439,15.8767,-45.6297,
4.4520,-0.0062,0.0875,1.0188,-0.0023,0.0116,-0.0019,-0.0095,0.0123,0.0051,0.7439,15.8767,-45.6297,
4.4530,-0.0062,0.0875,1.0188,-0.0023,0.0116,-0.0019,-0.0101,0.0065,0.0048,0.7439,15.8767,-45.6297,
4.4660,-0.0062,0.0875,1.0188,0.0138,0.0046,0.0049,-0.0101,0.0065,0.0048,0.7439,15.8767,-45.6297,
4.4670,-0.0068,0.0885,1.0244,0.0138,0.0046,0.0049,-0.0101,0.0065,0.0048,0.7439,15.8767,-45.6297,
4.4960,-0.0068,0.0885,1.0244,0.0138,0.0046,0.0049,-0.0092,-0.0048,0.0033,0.7439,15.8767,-45.6297,
4.4980,-0.0051,0.0905,1.0302,0.0138,0.0046,0.0049,-0.0092,-0.0048,0.0033,0.7439,15.8767,-45.6297,
4.4980,-0.0051,0.0905,1.0302,0.0138,0.0046,0.0049,-0.0092,-0.0048,0.0033,0.7056,15.8460,-45.6201,
4.5180,-0.0043,0.0899,1.0307,0.0138,0.0046,0.0049,-0.0092,-0.0048,0.0033,0.7056,15.8460,-45.6201,
4.5250,-0.0043,0.0899,1.0307,0.0138,0.0046,0.0049,0.0140,-0.0069,-0.0004,0.7056,15.8460,-45.6201,
4.5260,-0.0020,0.0888,1.0308,0.0138,0.0046,0.0049,0.0140,-0.0069,-0.0004,0.7056,15.8460,-45.6201,
4.5270,-0.0020,0.0888,1.0308,0.0037,-0.0039,-0.0071,0.0140,-0.0069,-0.0004,0.7056,15.8460,-45.6201,
4.5650,-0.0017,0.0874,1.0249,0.0037,-0.0039,-0.0071,0.0140,-0.0069,-0.0004,0.7056,15.8460,-45.6201,
4.5670,-0.0017,0.0874,1.0249,0.0037,-0.0039,-0.0071,0.0140,-0.0069,-0.0004,0.7173,15.8368,-45.6203,
4.5690,-0.0033,0.0863,1.0184,0.0037,-0.0039,-0.0071,0.0140,-0.0069,-0.0004,0.7173,15.8368,-45.6203,
4.5700,-0.0033,0.0863,1.0184,0.0037,-0.0039,-0.0071,0.0152,-0.0030,-0.0028,0.7173,15.8368,-45.6203,
4.5850,-0.0054,0.0871,1.0162,0.0037,-0.0039,-0.0071,0.0152,-0.0030,-0.0028,0.7173,15.8368,-45.6203,
4.6020,-0.0065,0.0859,1.0177,0.0037,-0.0039,-0.0071,0.0152,-0.0030,-0.0028,0.7173,15.8368,-45.6203,
4.6030,-0.0065,0.0859,1.0177,0.0037,-0.0039,-0.0071,-0.0135,0.0050,0.0024,0.7173,15.8368,-45.6203,
4.6040,-0.0065,0.0859,1.0177,0.0164,-0.0007,0.0684,-0.0135,0.0050,0.0024,0.7173,15.8368,-45.6203,
4.6300,-0.0059,0.0865,1.0219,0.0164,-0.0007,0.0684,-0.0135,0.0050,0.0024,0.7173,15.8368,-45.6203,
4.6310,-0.0059,0.0865,1.0219,0.0164,-0.0007,0.0684,-0.0135,0.0050,0.0024,0.7528,15.8188,-45.6202,
4.6510,-0.0059,0.0865,1.0219,0.0164,-0.0007,0.0684,-0.0211,0.0083,0.0036,0.7528,15.8188,-45.6202,
4.6520,-0.0064,0.0872,1.0249,0.0164,-0.0007,0.0684,-0.0211,0.0083,0.0036,0.7528,15.8188,-45.6202,
4.6610,-0.0064,0.0872,1.0249,0.0062,-0.0168,-0.0445,-0.0211,0.0083,0.0036,0.7528,15.8188,-45.6202,
4.6630,-0.0059,0.0871,1.0262,0.0062,-0.0168,-0.0445,-0.0211,0.0083,0.0036,0.7528,15.8188,-45.6202,
4.6970,-0.0059,0.0871,1.0262,0.0062,-0.0168,-0.0445,-0.0211,0.0083,0.0036,0.7564,15.8875,-45.6158,
4.6990,-0.0062,0.0860,1.0245,0.0062,-0.0168,-0.0445,-0.0211,0.0083,0.0036,0.7564,15.8875,-45.6158,
4.7000,-0.0062,0.0860,1.0245,0.0062,-0.0168,-0.0445,-0.0065,0.0047,0.0011,0.7564,15.8875,-45.6158,
4.7170,-0.0064,0.0864,1.0234,0.0062,-0.0168,-0.0445,-0.0065,0.0047,0.0011,0.7564,15.8875,-45.6158,
4.7390,-0.0064,0.0864,1.0234,0.0062,-0.0168,-0.0445,-0.0074,-0.0054,0.0002,0.7564,15.8875,-45.6158,
4.7400,-0.0048,0.0875,1.0228,0.0062,-0.0168,-0.0445,-0.0074,-0.0054,0.0002,0.7564,15.8875,-45.6158,
4.7400,-0.0050,0.0875,1.0210,0.0062,-0.0168,-0.0445,-0.0074,-0.0054,0.0002,0.7564,15.8875,-45.6158,
4.7410,-0.0050,0.0875,1.0210,-0.0041,-0.0067,0.0156,-0.0074,-0.0054,0.0002,0.7564,15.8875,-45.6158,
4.7640,-0.0050,0.0875,1.0210,-0.0041,-0.0067,0.0156,-0.0196,0.0001,0.0005,0.7564,15.8875,-45.6158,
4.7650,-0.0049,0.0880,1.0202,-0.0041,-0.0067,0.0156,-0.0196,0.0001,0.0005,0.7564,15.8875,-45.6158,
4.7660,-0.0049,0.0880,1.0202,-0.0041,-0.0067,0.0156,-0.0196,0.0001,0.0005,0.8520,15.8746,-45.5362,
4.7840,-0.0044,0.0881,1.0230,-0.0041,-0.0067,0.0156,-0.0196,0.0001,0.0005,0.8520,15.8746,-45.5362,
4.7980,-0.0034,0.0861,1.0262,-0.0041,-0.0067,0.0156,-0.0196,0.0001,0.0005,0.8520,15.8746,-45.5362,
4.7990,-0.0034,0.0861,1.0262,-0.0041,-0.0067,0.0156,-0.0266,0.0111,0.0018,0.8520,15.8746,-45.5362,
4.7990,-0.0034,0.0861,1.0262,0.0006,0.0036,-0.0042,-0.0266,0.0111,0.0018,0.8520,15.8746,-45.5362,
4.8300,-0.0034,0.0861,1.0262,0.0006,0.0036,-0.0042,-0.0266,0.0111,0.0018,0.8506,15.8668,-45.4725,
4.8320,-0.0038,0.0844,1.0260,0.0006,0.0036,-0.0042,-0.0266,0.0111,0.0018,0.8506,15.8668,-45.4725,
4.8510,-0.0056,0.0832,1.0227,0.0006,0.0036,-0.0042,-0.0266,0.0111,0.0018,0.8506,15.8668,-45.4725,
4.8520,-0.0056,0.0832,1.0227,0.0006,0.0036,-0.0042,-0.0095,0.0129,0.0002,0.8506,15.8668,-45.4725,
4.8760,-0.0056,0.0832,1.0227,0.0187,0.0167,0.0053,-0.0095,0.0129,0.0002,0.8506,15.8668,-45.4725,
4.8770,-0.0086,0.0835,1.0180,0.0187,0.0167,0.0053,-0.0095,0.0129,0.0002,0.8506,15.8668,-45.4725,
4.8780,-0.0068,0.0842,1.0179,0.0187,0.0167,0.0053,-0.0095,0.0129,0.0002,0.8506,15.8668,-45.4725,
4.8780,-0.0068,0.0842,1.0179,0.0187,0.0167,0.0053,-0.0074,0.0096,0.0039,0.8506,15.8668,-45.4725,
4.8970,-0.0053,0.0859,1.0219,0.0187,0.0167,0.0053,-0.0074,0.0096,0.0039,0.8506,15.8668,-45.4725,
4.8980,-0.0053,0.0859,1.0219,0.0187,0.0167,0.0053,-0.0074,0.0096,0.0039,0.8292,15.9250,-45.4567,
4.9180,-0.0053,0.0859,1.0219,0.0187,0.0167,0.0053,-0.0141,0.0001,0.0024,0.8292,15.9250,-45.4567,
4.9190,-0.0070,0.0871,1.0260,0.0187,0.0167,0.0053,-0.0141,0.0001,0.0024,0.8292,15.9250,-45.4567,
4.9350,-0.0070,0.0871,1.0260,0.0008,-0.0094,-0.0249,-0.0141,0.0001,0.0024,0.8292,15.9250,-45.4567,
4.9360,-0.0077,0.0842,1.0318,0.0008,-0.0094,-0.0249,-0.0141,0.0001,0.0024,0.8292,15.9250,-45.4567,
4.9630,-0.0077,0.0842,1.0318,0.0008,-0.0094,-0.0249,0.0021,-0.0103,0.0036,0.8292,15.9250,-45.4567,
4.9650,-0.0077,0.0842,1.0318,0.0008,-0.0094,-0.0249,0.0021,-0.0103,0.0036,0.8439,15.9747,-45.4531,
4.9660,-0.0081,0.0797,1.0388,0.0008,-0.0094,-0.0249,0.0021,-0.0103,0.0036,0.8439,15.9747,-45.4531,
4.9840,-0.0021,0.0775,1.0273,0.0008,-0.0094,-0.0249,0.0021,-0.0103,0.0036,0.8439,15.9747,-45.4531,
5.0130,-0.0021,0.0775,1.0273,-0.0096,0.0033,0.0487,0.0021,-0.0103,0.0036,0.8439,15.9747,-45.4531,
5.0160,-0.0021,0.0775,1.0273,-0.0096,0.0033,0.0487,0.0210,-0.0118,-0.0001,0.8439,15.9747,-45.4531,
5.0170,0.0007,0.0805,1.0115,-0.0096,0.0033,0.0487,0.0210,-0.0118,-0.0001,0.8439,15.9747,-45.4531,
5.0170,-0.0043,0.0843,1.0065,-0.0096,0.0033,0.0487,0.0210,-0.0118,-0.0001,0.8439,15.9747,-45.4531,
5.0310,-0.0043,0.0843,1.0065,-0.0096,0.0033,0.0487,0.0210,-0.0118,-0.0001,0.8233,16.0309,-45.5017,
5.0520,-0.0054,0.0880,1.0060,-0.0096,0.0033,0.0487,0.0210,-0.0118,-0.0001,0.8233,16.0309,-45.5017,
5.0530,-0.0057,0.0896,1.0163,-0.0096,0.0033,0.0487,0.0210,-0.0118,-0.0001,0.8233,16.0309,-45.5017,
5.0540,-0.0057,0.0896,1.0163,-0.0096,0.0033,0.0487,-0.0309,0.0035,-0.0037,0.8233,16.0309,-45.5017,
5.0710,-0.0054,0.0874,1.0361,-0.0096,0.0033,0.0487,-0.0309,0.0035,-0.0037,0.8233,16.0309,-45.5017,
5.0720,-0.0054,0.0874,1.0361,-0.0096,0.0033,0.0487,-0.0688,0.0022,0.0021,0.8233,16.0309,-45.5017,
5.0730,-0.0054,0.0874,1.0361,0.0296,-0.0318,-0.0450,-0.0688,0.0022,0.0021,0.8233,16.0309,-45.5017,
5.0970,-0.0046,0.0804,1.0388,0.0296,-0.0318,-0.0450,-0.0688,0.0022,0.0021,0.8233,16.0309,-45.5017,
5.0980,-0.0046,0.0804,1.0388,0.0296,-0.0318,-0.0450,-0.0688,0.0022,0.0021,0.8744,16.0826,-45.4839,
5.1180,-0.0051,0.0744,1.0291,0.0296,-0.0318,-0.0450,-0.0688,0.0022,0.0021,0.8744,16.0826,-45.4839,
5.1190,-0.0051,0.0744,1.0291,0.0296,-0.0318,-0.0450,-0.0025,0.0059,0.0002,0.8744,16.0826,-45.4839,
5.1500,-0.0071,0.0738,1.0225,0.0296,-0.0318,-0.0450,-0.0025,0.0059,0.0002,0.8744,16.0826,-45.4839,
5.1530,-0.0071,0.0738,1.0225,0.0296,-0.0318,-0.0450,0.0238,0.0303,0.0005,0.8744,16.0826,-45.4839,
5.1530,-0.0077,0.0772,1.0190,0.0296,-0.0318,-0.0450,0.0238,0.0303,0.0005,0.8744,16.0826,-45.4839,
5.1540,-0.0077,0.0772,1.0190,0.0034,0.0591,-0.0063,0.0238,0.0303,0.0005,0.8744,16.0826,-45.4839,
5.1630,-0.0077,0.0772,1.0190,0.0034,0.0591,-0.0063,0.0238,0.0303,0.0005,0.9246,16.1146,-45.4673,
5.1850,-0.0105,0.0815,1.0208,0.0034,0.0591,-0.0063,0.0238,0.0303,0.0005,0.9246,16.1146,-45.4673,
5.2080,-0.0086,0.0841,1.0246,0.0034,0.0591,-0.0063,0.0238,0.0303,0.0005,0.9246,16.1146,-45.4673,
5.2100,-0.0086,0.0841,1.0246,0.0034,0.0591,-0.0063,0.0067,0.0154,0.0018,0.9246,16.1146,-45.4673,
5.2100,-0.0083,0.0835,1.0255,0.0034,0.0591,-0.0063,0.0067,0.0154,0.0018,0.9246,16.1146,-45.4673,
5.2110,-0.0083,0.0835,1.0255,0.0094,-0.0620,0.0216,0.0067,0.0154,0.0018,0.9246,16.1146,-45.4673,
5.2300,-0.0083,0.0835,1.0255,0.0094,-0.0620,0.0216,-0.0052,-0.0054,0.0021,0.9246,16.1146,-45.4673,
5.2310,-0.0083,0.0835,1.0255,0.0094,-0.0620,0.0216,-0.0052,-0.0054,0.0021,0.9851,16.1185,-45.4264,
5.2320,-0.0078,0.0827,1.0236,0.0094,-0.0620,0.0216,-0.0052,-0.0054,0.0021,0.9851,16.1185,-45.4264,
5.2510,-0.0061,0.0814,1.0208,0.0094,-0.0620,0.0216,-0.0052,-0.0054,0.0021,0.9851,16.1185,-45.4264,
5.2870,-0.0061,0.0814,1.0208,0.0094,-0.0620,0.0216,-0.0095,0.0047,0.0002,0.9851,16.1185,-45.4264,
5.2880,-0.0065,0.0805,1.0178,0.0094,-0.0620,0.0216,-0.0095,0.0047,0.0002,0.9851,16.1185,-45.4264,
5.2880,-0.0072,0.0815,1.0223,0.0094,-0.0620,0.0216,-0.0095,0.0047,0.0002,0.9851,16.1185,-45.4264,
5.2890,-0.0072,0.0815,1.0223,-0.0144,0.0111,0.0035,-0.0095,0.0047,0.0002,0.9851,16.1185,-45.4264,
5.2960,-0.0072,0.0815,1.0223,-0.0144,0.0111,0.0035,-0.0095,0.0047,0.0002,1.0137,16.1757,-45.5118,
5.3180,-0.0046,0.0803,1.0257,-0.0144,0.0111,0.0035,-0.0095,0.0047,0.0002,1.0137,16.1757,-45.5118,
5.3200,-0.0046,0.0803,1.0257,-0.0144,0.0111,0.0035,-0.0141,0.0200,0.0018,1.0137,16.1757,-45.5118,
5.3450,-0.0051,0.0794,1.0186,-0.0144,0.0111,0.0035,-0.0141,0.0200,0.0018,1.0137,16.1757,-45.5118,
5.3460,-0.0051,0.0794,1.0186,-0.0144,0.0111,0.0035,-0.0184,0.0169,0.0008,1.0137,16.1757,-45.5118,
5.3470,-0.0083,0.0783,1.0167,-0.0144,0.0111,0.0035,-0.0184,0.0169,0.0008,1.0137,16.1757,-45.5118,
5.3470,-0.0083,0.0783,1.0167,0.0149,0.0026,-0.0235,-0.0184,0.0169,0.0008,1.0137,16.1757,-45.5118,
5.3640,-0.0083,0.0783,1.0167,0.0149,0.0026,-0.0235,-0.0184,0.0169,0.0008,1.0777,16.2263,-45.5449,
5.3850,-0.0093,0.0804,1.0181,0.0149,0.0026,-0.0235,-0.0184,0.0169,0.0008,1.0777,16.2263,-45.5449,
5.3860,-0.0093,0.0804,1.0181,0.0149,0.0026,-0.0235,-0.0312,0.0001,0.0033,1.0777,16.2263,-45.5449,
5.3870,-0.0087,0.0796,1.0256,0.0149,0.0026,-0.0235,-0.0312,0.0001,0.0033,1.0777,16.2263,-45.5449,
5.4240,-0.0083,0.0789,1.0290,0.0149,0.0026,-0.0235,-0.0312,0.0001,0.0033,1.0777,16.2263,-45.5449,
5.4260,-0.0083,0.0789,1.0290,0.0149,0.0026,-0.0235,-0.0098,-0.0094,0.0018,1.0777,16.2263,-45.5449,
5.4260,-0.0078,0.0788,1.0275,0.0149,0.0026,-0.0235,-0.0098,-0.0094,0.0018,1.0777,16.2263,-45.5449,
5.4270,-0.0078,0.0788,1.0275,0.0224,0.0006,-0.0296,-0.0098,-0.0094,0.0018,1.0777,16.2263,-45.5449,
5.4290,-0.0078,0.0788,1.0275,0.0224,0.0006,-0.0296,-0.0098,-0.0094,0.0018,1.0557,16.2747,-45.5298,
5.4520,-0.0087,0.0763,1.0232,0.0224,0.0006,-0.0296,-0.0098,-0.0094,0.0018,1.0557,16.2747,-45.5298,
5.4830,-0.0087,0.0763,1.0232,0.0224,0.0006,-0.0296,0.0052,0.0035,-0.0007,1.0557,16.2747,-45.5298,
5.4840,-0.0088,0.0763,1.0205,0.0224,0.0006,-0.0296,0.0052,0.0035,-0.0007,1.0557,16.2747,-45.5298,
5.4850,-0.0089,0.0770,1.0203,0.0224,0.0006,-0.0296,0.0052,0.0035,-0.0007,1.0557,16.2747,-45.5298,
5.4850,-0.0089,0.0770,1.0203,-0.0014,0.0047,0.0292,0.0052,0.0035,-0.0007,1.0557,16.2747,-45.5298,
5.4960,-0.0089,0.0770,1.0203,-0.0014,0.0047,0.0292,0.0052,0.0035,-0.0007,1.0459,16.3347,-45.4751,
5.5180,-0.0099,0.0765,1.0214,-0.0014,0.0047,0.0292,0.0052,0.0035,-0.0007,1.0459,16.3347,-45.4751,
5.5190,-0.0099,0.0765,1.0214,-0.0014,0.0047,0.0292,-0.0068,0.0080,0.0008,1.0459,16.3347,-45.4751,
5.5600,-0.0099,0.0765,1.0214,-0.0014,0.0047,0.0292,-0.0126,0.0087,0.0024,1.0459,16.3347,-45.4751,
5.5610,-0.0087,0.0776,1.0207,-0.0014,0.0047,0.0292,-0.0126,0.0087,0.0024,1.0459,16.3347,-45.4751,
5.5620,-0.0086,0.0775,1.0232,-0.0014,0.0047,0.0292,-0.0126,0.0087,0.0024,1.0459,16.3347,-45.4751,
5.5620,-0.0103,0.0760,1.0300,-0.0014,0.0047,0.0292,-0.0126,0.0087,0.0024,1.0459,16.3347,-45.4751,
5.5630,-0.0103,0.0760,1.0300,-0.0010,-0.0178,-0.0171,-0.0126,0.0087,0.0024,1.0459,16.3347,-45.4751,
5.5630,-0.0103,0.0760,1.0300,-0.0010,-0.0178,-0.0171,-0.0126,0.0087,0.0024,1.1195,16.3592,-45.4196,
5.5840,-0.0095,0.0753,1.0275,-0.0010,-0.0178,-0.0171,-0.0126,0.0087,0.0024,1.1195,16.3592,-45.4196,
5.5860,-0.0095,0.0753,1.0275,-0.0010,-0.0178,-0.0171,0.0003,0.0120,0.0005,1.1195,16.3592,-45.4196,
5.6170,-0.0092,0.0752,1.0179,-0.0010,-0.0178,-0.0171,0.0003,0.0120,0.0005,1.1195,16.3592,-45.4196,
5.6180,-0.0084,0.0766,1.0122,-0.0010,-0.0178,-0.0171,0.0003,0.0120,0.0005,1.1195,16.3592,-45.4196,
5.6180,-0.0084,0.0766,1.0122,-0.0010,-0.0178,-0.0171,-0.0052,0.0123,-0.0013,1.1195,16.3592,-45.4196,
5.6190,-0.0084,0.0766,1.0122,0.0031,-0.0091,0.0093,-0.0052,0.0123,-0.0013,1.1195,16.3592,-45.4196,
5.6290,-0.0084,0.0766,1.0122,0.0031,-0.0091,0.0093,-0.0052,0.0123,-0.0013,1.1715,16.4199,-45.4268,
5.6510,-0.0082,0.0788,1.0153,0.0031,-0.0091,0.0093,-0.0052,0.0123,-0.0013,1.1715,16.4199,-45.4268,
5.6960,-0.0082,0.0788,1.0153,0.0031,-0.0091,0.0093,-0.0397,0.0062,-0.0013,1.1715,16.4199,-45.4268,
5.6970,-0.0090,0.0778,1.0214,0.0031,-0.0091,0.0093,-0.0397,0.0062,-0.0013,1.1715,16.4199,-45.4268,
5.6970,-0.0087,0.0756,1.0234,0.0031,-0.0091,0.0093,-0.0397,0.0062,-0.0013,1.1715,16.4199,-45.4268,
5.6980,-0.0088,0.0732,1.0224,0.0031,-0.0091,0.0093,-0.0397,0.0062,-0.0013,1.1715,16.4199,-45.4268,
5.6990,-0.0088,0.0732,1.0224,0.0031,-0.0091,0.0093,-0.0336,0.0111,0.0011,1.1715,16.4199,-45.4268,
5.6990,-0.0088,0.0732,1.0224,0.0115,-0.0032,-0.0428,-0.0336,0.0111,0.0011,1.1715,16.4199,-45.4268,
5.7000,-0.0088,0.0732,1.0224,0.0115,-0.0032,-0.0428,-0.0336,0.0111,0.0011,1.2237,16.4912,-45.4077,
5.7170,-0.0097,0.0714,1.0241,0.0115,-0.0032,-0.0428,-0.0336,0.0111,0.0011,1.2237,16.4912,-45.4077,
5.7540,-0.0097,0.0714,1.0241,0.0115,-0.0032,-0.0428,-0.0144,0.0108,0.0005,1.2237,16.4912,-45.4077,
5.7560,-0.0125,0.0712,1.0197,0.0115,-0.0032,-0.0428,-0.0144,0.0108,0.0005,1.2237,16.4912,-45.4077,
5.7570,-0.0117,0.0731,1.0131,0.0115,-0.0032,-0.0428,-0.0144,0.0108,0.0005,1.2237,16.4912,-45.4077,
5.7570,-0.0117,0.0731,1.0131,0.0191,0.0152,-0.0110,-0.0144,0.0108,0.0005,1.2237,16.4912,-45.4077,
5.7630,-0.0117,0.0731,1.0131,0.0191,0.0152,-0.0110,-0.0144,0.0108,0.0005,1.2396,16.5490,-45.4549,
5.7860,-0.0117,0.0731,1.0131,0.0191,0.0152,-0.0110,-0.0168,0.0025,0.0021,1.2396,16.5490,-45.4549,
5.7870,-0.0099,0.0753,1.0172,0.0191,0.0152,-0.0110,-0.0168,0.0025,0.0021,1.2396,16.5490,-45.4549,
5.8310,-0.0099,0.0753,1.0172,0.0191,0.0152,-0.0110,-0.0190,0.0044,0.0002,1.2396,16.5490,-45.4549,
5.8320,-0.0099,0.0753,1.0172,0.0191,0.0152,-0.0110,-0.0190,0.0044,0.0002,1.2661,16.6004,-45.4123,
5.8320,-0.0101,0.0761,1.0223,0.0191,0.0152,-0.0110,-0.0190,0.0044,0.0002,1.2661,16.6004,-45.4123,
5.8330,-0.0122,0.0758,1.0260,0.0191,0.0152,-0.0110,-0.0190,0.0044,0.0002,1.2661,16.6004,-45.4123,
5.8330,-0.0116,0.0725,1.0341,0.0191,0.0152,-0.0110,-0.0190,0.0044,0.0002,1.2661,16.6004,-45.4123,
5.8340,-0.0116,0.0725,1.0341,-0.0016,-0.0087,-0.0369,-0.0190,0.0044,0.0002,1.2661,16.6004,-45.4123,
5.8530,-0.0095,0.0678,1.0414,-0.0016,-0.0087,-0.0369,-0.0190,0.0044,0.0002,1.2661,16.6004,-45.4123,
5.8540,-0.0095,0.0678,1.0414,-0.0016,-0.0087,-0.0369,0.0088,0.0028,0.0036,1.2661,16.6004,-45.4123,
5.8920,-0.0095,0.0678,1.0414,0.0007,0.0153,0.0324,0.0088,0.0028,0.0036,1.2661,16.6004,-45.4123,
5.8930,-0.0053,0.0665,1.0263,0.0007,0.0153,0.0324,0.0088,0.0028,0.0036,1.2661,16.6004,-45.4123,
5.8940,-0.0053,0.0665,1.0263,0.0007,0.0153,0.0324,0.0342,-0.0002,-0.0044,1.2661,16.6004,-45.4123,
5.8940,-0.0078,0.0701,1.0009,0.0007,0.0153,0.0324,0.0342,-0.0002,-0.0044,1.2661,16.6004,-45.4123,
5.8970,-0.0078,0.0701,1.0009,0.0007,0.0153,0.0324,0.0342,-0.0002,-0.0044,1.2321,16.6589,-45.3713,
5.9170,-0.0130,0.0743,0.9959,0.0007,0.0153,0.0324,0.0342,-0.0002,-0.0044,1.2321,16.6589,-45.3713,
5.9640,-0.0130,0.0743,0.9959,0.0007,0.0153,0.0324,-0.0501,0.0053,-0.0007,1.2321,16.6589,-45.3713,
5.9650,-0.0120,0.0767,1.0037,0.0007,0.0153,0.0324,-0.0501,0.0053,-0.0007,1.2321,16.6589,-45.3713,
5.9660,-0.0120,0.0767,1.0037,0.0007,0.0153,0.0324,-0.0501,0.0053,-0.0007,1.2714,16.6982,-45.4188,
5.9670,-0.0109,0.0778,1.0261,0.0007,0.0153,0.0324,-0.0501,0.0053,-0.0007,1.2714,16.6982,-45.4188,
5.9690,-0.0109,0.0778,1.0261,0.0007,0.0153,0.0324,-0.0700,0.0059,0.0011,1.2714,16.6982,-45.4188,
5.9700,-0.0110,0.0741,1.0427,0.0007,0.0153,0.0324,-0.0700,0.0059,0.0011,1.2714,16.6982,-45.4188,
5.9710,-0.0110,0.0741,1.0427,0.0265,-0.0395,-0.0333,-0.0700,0.0059,0.0011,1.2714,16.6982,-45.4188,
6.0290,-0.0110,0.0741,1.0427,0.0265,-0.0395,-0.0333,0.0131,0.0190,-0.0019,1.2714,16.6982,-45.4188,
6.0310,-0.0109,0.0672,1.0378,0.0265,-0.0395,-0.0333,0.0131,0.0190,-0.0019,1.2714,16.6982,-45.4188,
6.0320,-0.0109,0.0672,1.0378,0.0003,0.0580,-0.0212,0.0131,0.0190,-0.0019,1.2714,16.6982,-45.4188,
6.0320,-0.0104,0.0623,1.0250,0.0003,0.0580,-0.0212,0.0131,0.0190,-0.0019,1.2714,16.6982,-45.4188,
6.0330,-0.0114,0.0622,1.0174,0.0003,0.0580,-0.0212,0.0131,0.0190,-0.0019,1.2714,16.6982,-45.4188,
6.0340,-0.0114,0.0622,1.0174,0.0003,0.0580,-0.0212,0.0131,0.0190,-0.0019,1.3087,16.7203,-45.3905,
6.0510,-0.0127,0.0662,1.0180,0.0003,0.0580,-0.0212,0.0131,0.0190,-0.0019,1.3087,16.7203,-45.3905,
6.0530,-0.0127,0.0662,1.0180,0.0003,0.0580,-0.0212,0.0158,0.0248,-0.0004,1.3087,16.7203,-45.3905,
6.0970,-0.0142,0.0699,1.0218,0.0003,0.0580,-0.0212,0.0158,0.0248,-0.0004,1.3087,16.7203,-45.3905,
6.0980,-0.0142,0.0699,1.0218,0.0003,0.0580,-0.0212,-0.0034,0.0132,0.0036,1.3087,16.7203,-45.3905,
6.0980,-0.0147,0.0717,1.0280,0.0003,0.0580,-0.0212,-0.0034,0.0132,0.0036,1.3087,16.7203,-45.3905,
6.0990,-0.0147,0.0717,1.0280,0.0003,0.0580,-0.0212,-0.0034,0.0132,0.0036,1.3464,16.7411,-45.4007,
6.1060,-0.0147,0.0717,1.0280,0.0184,-0.0622,0.0271,-0.0034,0.0132,0.0036,1.3464,16.7411,-45.4007,
6.1070,-0.0120,0.0714,1.0302,0.0184,-0.0622,0.0271,-0.0034,0.0132,0.0036,1.3464,16.7411,-45.4007,
6.1670,-0.0126,0.0714,1.0224,0.0184,-0.0622,0.0271,-0.0034,0.0132,0.0036,1.3464,16.7411,-45.4007,
6.1680,-0.0136,0.0717,1.0120,0.0184,-0.0622,0.0271,-0.0034,0.0132,0.0036,1.3464,16.7411,-45.4007,
6.1690,-0.0136,0.0717,1.0120,-0.0010,0.0000,0.0262,-0.0034,0.0132,0.0036,1.3464,16.7411,-45.4007,
6.1700,-0.0136,0.0717,1.0120,-0.0010,0.0000,0.0262,0.0033,0.0016,-0.0007,1.3464,16.7411,-45.4007,
6.1710,-0.0144,0.0723,1.0100,-0.0010,0.0000,0.0262,0.0033,0.0016,-0.0007,1.3464,16.7411,-45.4007,
6.1710,-0.0144,0.0723,1.0100,-0.0010,0.0000,0.0262,-0.0187,-0.0011,-0.0013,1.3464,16.7411,-45.4007,
6.1720,-0.0144,0.0723,1.0100,-0.0010,0.0000,0.0262,-0.0187,-0.0011,-0.0013,1.3473,16.7501,-45.4258,
6.1860,-0.0127,0.0719,1.0213,-0.0010,0.0000,0.0262,-0.0187,-0.0011,-0.0013,1.3473,16.7501,-45.4258,
6.2300,-0.0127,0.0719,1.0213,-0.0010,0.0000,0.0262,-0.0187,-0.0011,-0.0013,1.3246,16.7781,-45.4377,
6.2310,-0.0105,0.0678,1.0348,-0.0010,0.0000,0.0262,-0.0187,-0.0011,-0.0013,1.3246,16.7781,-45.4377,
6.2320,-0.0105,0.0678,1.0348,-0.0010,0.0000,0.0262,-0.0388,0.0071,0.0027,1.3246,16.7781,-45.4377,
6.2320,-0.0108,0.0640,1.0341,-0.0010,0.0000,0.0262,-0.0388,0.0071,0.0027,1.3246,16.7781,-45.4377,
6.2450,-0.0136,0.0636,1.0269,-0.0010,0.0000,0.0262,-0.0388,0.0071,0.0027,1.3246,16.7781,-45.4377,
6.2460,-0.0136,0.0636,1.0269,0.0007,0.0304,-0.0703,-0.0388,0.0071,0.0027,1.3246,16.7781,-45.4377,
6.2470,-0.0136,0.0636,1.0269,0.0007,0.0304,-0.0703,0.0003,0.0126,0.0002,1.3246,16.7781,-45.4377,
6.2990,-0.0142,0.0657,1.0190,0.0007,0.0304,-0.0703,0.0003,0.0126,0.0002,1.3246,16.7781,-45.4377,
6.3010,-0.0142,0.0657,1.0190,0.0007,0.0304,-0.0703,0.0012,0.0016,0.0033,1.3246,16.7781,-45.4377,
6.3010,-0.0114,0.0688,1.0207,0.0007,0.0304,-0.0703,0.0012,0.0016,0.0033,1.3246,16.7781,-45.4377,
6.3020,-0.0114,0.0688,1.0207,0.0007,0.0304,-0.0703,0.0012,0.0016,0.0033,1.3624,16.8210,-45.3695,
6.3030,-0.0117,0.0695,1.0229,0.0007,0.0304,-0.0703,0.0012,0.0016,0.0033,1.3624,16.8210,-45.3695,
6.3030,-0.0117,0.0695,1.0229,0.0217,-0.0234,0.0786,0.0012,0.0016,0.0033,1.3624,16.8210,-45.3695,
6.3640,-0.0117,0.0695,1.0229,0.0217,-0.0234,0.0786,0.0012,0.0016,0.0033,1.3875,16.8426,-45.3416,
6.3660,-0.0115,0.0690,1.0255,0.0217,-0.0234,0.0786,0.0012,0.0016,0.0033,1.3875,16.8426,-45.3416,
6.3670,-0.0139,0.0670,1.0268,0.0217,-0.0234,0.0786,0.0012,0.0016,0.0033,1.3875,16.8426,-45.3416,
6.3670,-0.0137,0.0638,1.0246,0.0217,-0.0234,0.0786,0.0012,0.0016,0.0033,1.3875,16.8426,-45.3416,
6.3680,-0.0137,0.0638,1.0246,0.0217,-0.0234,0.0786,-0.0074,-0.0033,-0.0007,1.3875,16.8426,-45.3416,
6.3690,-0.0137,0.0638,1.0246,0.0217,-0.0234,0.0786,-0.0046,0.0025,-0.0013,1.3875,16.8426,-45.3416,
6.3790,-0.0137,0.0638,1.0246,0.0132,0.0017,-0.0143,-0.0046,0.0025,-0.0013,1.3875,16.8426,-45.3416,
6.3800,-0.0153,0.0640,1.0208,0.0132,0.0017,-0.0143,-0.0046,0.0025,-0.0013,1.3875,16.8426,-45.3416,
6.4320,-0.0153,0.0640,1.0208,0.0132,0.0017,-0.0143,-0.0107,0.0096,0.0014,1.3875,16.8426,-45.3416,
6.4340,-0.0144,0.0649,1.0177,0.0132,0.0017,-0.0143,-0.0107,0.0096,0.0014,1.3875,16.8426,-45.3416,
6.4350,-0.0143,0.0670,1.0178,0.0132,0.0017,-0.0143,-0.0107,0.0096,0.0014,1.3875,16.8426,-45.3416,
6.4360,-0.0143,0.0670,1.0178,0.0132,0.0017,-0.0143,-0.0107,0.0096,0.0014,1.3892,16.8826,-45.3133,
6.4370,-0.0145,0.0670,1.0234,0.0132,0.0017,-0.0143,-0.0107,0.0096,0.0014,1.3892,16.8826,-45.3133,
6.4380,-0.0145,0.0670,1.0234,0.0132,0.0017,-0.0143,-0.0242,0.0035,0.0005,1.3892,16.8826,-45.3133,
6.4380,-0.0145,0.0670,1.0234,0.0015,-0.0164,0.0107,-0.0242,0.0035,0.0005,1.3892,16.8826,-45.3133,
6.4980,-0.0150,0.0659,1.0275,0.0015,-0.0164,0.0107,-0.0242,0.0035,0.0005,1.3892,16.8826,-45.3133,
6.4990,-0.0138,0.0636,1.0278,0.0015,-0.0164,0.0107,-0.0242,0.0035,0.0005,1.3892,16.8826,-45.3133,
6.5000,-0.0123,0.0642,1.0217,0.0015,-0.0164,0.0107,-0.0242,0.0035,0.0005,1.3892,16.8826,-45.3133,
6.5000,-0.0123,0.0642,1.0217,0.0015,-0.0164,0.0107,-0.0242,0.0035,0.0005,1.3649,16.8926,-45.2750,
6.5010,-0.0123,0.0642,1.0217,0.0015,-0.0164,0.0107,-0.0120,0.0025,0.0014,1.3649,16.8926,-45.2750,
6.5150,-0.0123,0.0642,1.0217,0.0015,-0.0164,0.0107,-0.0052,-0.0014,-0.0016,1.3649,16.8926,-45.2750,
6.5160,-0.0141,0.0661,1.0166,0.0015,-0.0164,0.0107,-0.0052,-0.0014,-0.0016,1.3649,16.8926,-45.2750,
6.5170,-0.0141,0.0661,1.0166,-0.0025,0.0045,-0.0229,-0.0052,-0.0014,-0.0016,1.3649,16.8926,-45.2750,
6.5660,-0.0141,0.0661,1.0166,-0.0025,0.0045,-0.0229,-0.0233,0.0032,0.0002,1.3649,16.8926,-45.2750,
6.5670,-0.0141,0.0661,1.0166,-0.0025,0.0045,-0.0229,-0.0233,0.0032,0.0002,1.3063,16.9283,-45.3005,
6.5680,-0.0128,0.0670,1.0191,-0.0025,0.0045,-0.0229,-0.0233,0.0032,0.0002,1.3063,16.9283,-45.3005,
6.5680,-0.0138,0.0672,1.0260,-0.0025,0.0045,-0.0229,-0.0233,0.0032,0.0002,1.3063,16.9283,-45.3005,
6.5740,-0.0138,0.0672,1.0260,0.0067,-0.0043,-0.0009,-0.0233,0.0032,0.0002,1.3063,16.9283,-45.3005,
6.5750,-0.0139,0.0655,1.0310,0.0067,-0.0043,-0.0009,-0.0233,0.0032,0.0002,1.3063,16.9283,-45.3005,
6.6300,-0.0134,0.0617,1.0326,0.0067,-0.0043,-0.0009,-0.0233,0.0032,0.0002,1.3063,16.9283,-45.3005,
6.6320,-0.0134,0.0617,1.0326,0.0067,-0.0043,-0.0009,-0.0233,0.0032,0.0002,1.2731,16.9958,-45.2846,
6.6330,-0.0134,0.0617,1.0326,0.0067,-0.0043,-0.0009,-0.0107,0.0065,0.0014,1.2731,16.9958,-45.2846,
6.6330,-0.0145,0.0604,1.0313,0.0067,-0.0043,-0.0009,-0.0107,0.0065,0.0014,1.2731,16.9958,-45.2846,
6.6550,-0.0143,0.0607,1.0230,0.0067,-0.0043,-0.0009,-0.0107,0.0065,0.0014,1.2731,16.9958,-45.2846,
6.6560,-0.0143,0.0607,1.0230,0.0067,-0.0043,-0.0009,0.0128,0.0056,0.0005,1.2731,16.9958,-45.2846,
6.6570,-0.0158,0.0614,1.0152,0.0067,-0.0043,-0.0009,0.0128,0.0056,0.0005,1.2731,16.9958,-45.2846,
6.6570,-0.0158,0.0614,1.0152,0.0103,0.0142,0.0295,0.0128,0.0056,0.0005,1.2731,16.9958,-45.2846,
6.6970,-0.0158,0.0614,1.0152,0.0103,0.0142,0.0295,-0.0037,0.0022,0.0030,1.2731,16.9958,-45.2846,
6.6980,-0.0145,0.0639,1.0117,0.0103,0.0142,0.0295,-0.0037,0.0022,0.0030,1.2731,16.9958,-45.2846,
6.6990,-0.0128,0.0665,1.0186,0.0103,0.0142,0.0295,-0.0037,0.0022,0.0030,1.2731,16.9958,-45.2846,
6.7000,-0.0128,0.0665,1.0186,0.0103,0.0142,0.0295,-0.0037,0.0022,0.0030,1.2487,17.0057,-45.2463,
6.7130,-0.0163,0.0660,1.0301,0.0103,0.0142,0.0295,-0.0037,0.0022,0.0030,1.2487,17.0057,-45.2463,
6.7150,-0.0163,0.0660,1.0301,0.0006,-0.0336,0.0093,-0.0037,0.0022,0.0030,1.2487,17.0057,-45.2463,
6.7160,-0.0163,0.0660,1.0301,0.0006,-0.0336,0.0093,-0.0306,0.0016,0.0005,1.2487,17.0057,-45.2463,
6.7650,-0.0161,0.0616,1.0409,0.0006,-0.0336,0.0093,-0.0306,0.0016,0.0005,1.2487,17.0057,-45.2463,
6.7680,-0.0161,0.0616,1.0409,0.0006,-0.0336,0.0093,0.0073,0.0053,0.0036,1.2487,17.0057,-45.2463,
6.7680,-0.0121,0.0570,1.0407,0.0006,-0.0336,0.0093,0.0073,0.0053,0.0036,1.2487,17.0057,-45.2463,
6.7690,-0.0121,0.0570,1.0407,0.0006,-0.0336,0.0093,0.0073,0.0053,0.0036,1.3129,17.0560,-45.2924,
6.7860,-0.0097,0.0581,1.0266,0.0006,-0.0336,0.0093,0.0073,0.0053,0.0036,1.3129,17.0560,-45.2924,
6.7870,-0.0125,0.0611,1.0057,0.0006,-0.0336,0.0093,0.0073,0.0053,0.0036,1.3129,17.0560,-45.2924,
6.7880,-0.0125,0.0611,1.0057,0.0006,-0.0336,0.0093,0.0308,-0.0075,-0.0047,1.3129,17.0560,-45.2924,
6.7880,-0.0125,0.0611,1.0057,0.0029,0.0176,-0.0060,0.0308,-0.0075,-0.0047,1.3129,17.0560,-45.2924,
6.8300,-0.0125,0.0611,1.0057,0.0029,0.0176,-0.0060,-0.0462,0.0050,0.0036,1.3129,17.0560,-45.2924,
6.8310,-0.0125,0.0611,1.0057,0.0029,0.0176,-0.0060,-0.0462,0.0050,0.0036,1.3014,17.0869,-45.2266,
6.8320,-0.0167,0.0650,1.0042,0.0029,0.0176,-0.0060,-0.0462,0.0050,0.0036,1.3014,17.0869,-45.2266,
6.8320,-0.0138,0.0686,1.0145,0.0029,0.0176,-0.0060,-0.0462,0.0050,0.0036,1.3014,17.0869,-45.2266,
6.8480,-0.0138,0.0686,1.0145,0.0226,-0.0472,0.0298,-0.0462,0.0050,0.0036,1.3014,17.0869,-45.2266,
6.8500,-0.0136,0.0698,1.0289,0.0226,-0.0472,0.0298,-0.0462,0.0050,0.0036,1.3014,17.0869,-45.2266,
6.8990,-0.0136,0.0698,1.0289,0.0226,-0.0472,0.0298,-0.0596,0.0123,0.0002,1.3014,17.0869,-45.2266,
6.9020,-0.0160,0.0675,1.0390,0.0226,-0.0472,0.0298,-0.0596,0.0123,0.0002,1.3014,17.0869,-45.2266,
6.9020,-0.0152,0.0581,1.0377,0.0226,-0.0472,0.0298,-0.0596,0.0123,0.0002,1.3014,17.0869,-45.2266,
6.9030,-0.0152,0.0581,1.0377,0.0226,-0.0472,0.0298,-0.0596,0.0123,0.0002,1.2923,17.1452,-45.2233,
6.9180,-0.0145,0.0510,1.0268,0.0226,-0.0472,0.0298,-0.0596,0.0123,0.0002,1.2923,17.1452,-45.2233,
6.9200,-0.0145,0.0510,1.0268,0.0226,-0.0472,0.0298,0.0076,0.0141,-0.0013,1.2923,17.1452,-45.2233,
6.9260,-0.0145,0.0510,1.0268,0.0034,0.0703,-0.0450,0.0076,0.0141,-0.0013,1.2923,17.1452,-45.2233,
6.9270,-0.0142,0.0518,1.0181,0.0034,0.0703,-0.0450,0.0076,0.0141,-0.0013,1.2923,17.1452,-45.2233,
6.9650,-0.0142,0.0518,1.0181,0.0034,0.0703,-0.0450,0.0155,0.0138,-0.0007,1.2923,17.1452,-45.2233,
6.9670,-0.0173,0.0581,1.0175,0.0034,0.0703,-0.0450,0.0155,0.0138,-0.0007,1.2923,17.1452,-45.2233,
6.9670,-0.0173,0.0581,1.0175,0.0034,0.0703,-0.0450,0.0155,0.0138,-0.0007,1.2929,17.1661,-45.1834,
6.9860,-0.0173,0.0581,1.0175,0.0110,-0.0563,0.0528,0.0155,0.0138,-0.0007,1.2929,17.1661,-45.1834,
6.9870,-0.0173,0.0581,1.0175,0.0110,-0.0563,0.0528,-0.0006,0.0071,0.0045,1.2929,17.1661,-45.1834,
6.9880,-0.0183,0.0612,1.0242,0.0110,-0.0563,0.0528,-0.0006,0.0071,0.0045,1.2929,17.1661,-45.1834,
6.9880,-0.0171,0.0628,1.0290,0.0110,-0.0563,0.0528,-0.0006,0.0071,0.0045,1.2929,17.1661,-45.1834,
7.0310,-0.0154,0.0626,1.0251,0.0110,-0.0563,0.0528,-0.0006,0.0071,0.0045,1.2929,17.1661,-45.1834,
7.0320,-0.0154,0.0626,1.0251,0.0110,-0.0563,0.0528,0.0042,-0.0054,0.0002,1.2929,17.1661,-45.1834,
7.0320,-0.0154,0.0626,1.0251,0.0110,-0.0563,0.0528,0.0042,-0.0054,0.0002,1.3195,17.2061,-45.1929,
7.0330,-0.0148,0.0618,1.0189,0.0110,-0.0563,0.0528,0.0042,-0.0054,0.0002,1.3195,17.2061,-45.1929,
7.0530,-0.0155,0.0623,1.0159,0.0110,-0.0563,0.0528,0.0042,-0.0054,0.0002,1.3195,17.2061,-45.1929,
7.0630,-0.0155,0.0623,1.0159,-0.0098,-0.0032,-0.0007,0.0042,-0.0054,0.0002,1.3195,17.2061,-45.1929,
7.0630,-0.0155,0.0623,1.0159,-0.0098,-0.0032,-0.0007,-0.0190,-0.0085,-0.0025,1.3195,17.2061,-45.1929,
7.0640,-0.0166,0.0623,1.0194,-0.0098,-0.0032,-0.0007,-0.0190,-0.0085,-0.0025,1.3195,17.2061,-45.1929,
7.0970,-0.0166,0.0623,1.0194,-0.0098,-0.0032,-0.0007,-0.0190,-0.0085,-0.0025,1.3076,17.2047,-45.2191,
7.0990,-0.0155,0.0622,1.0249,-0.0098,-0.0032,-0.0007,-0.0190,-0.0085,-0.0025,1.3076,17.2047,-45.2191,
7.1180,-0.0155,0.0622,1.0249,-0.0098,-0.0032,-0.0007,-0.0236,0.0007,0.0014,1.3076,17.2047,-45.2191,
7.1200,-0.0132,0.0601,1.0335,-0.0098,-0.0032,-0.0007,-0.0236,0.0007,0.0014,1.3076,17.2047,-45.2191,
7.1210,-0.0142,0.0559,1.0349,-0.0098,-0.0032,-0.0007,-0.0236,0.0007,0.0014,1.3076,17.2047,-45.2191,
7.1220,-0.0142,0.0559,1.0349,0.0020,0.0208,-0.0458,-0.0236,0.0007,0.0014,1.3076,17.2047,-45.2191,
7.1650,-0.0139,0.0552,1.0263,0.0020,0.0208,-0.0458,-0.0236,0.0007,0.0014,1.3076,17.2047,-45.2191,
7.1680,-0.0139,0.0552,1.0263,0.0020,0.0208,-0.0458,0.0070,-0.0002,0.0002,1.3076,17.2047,-45.2191,
7.1690,-0.0167,0.0585,1.0208,0.0020,0.0208,-0.0458,0.0070,-0.0002,0.0002,1.3076,17.2047,-45.2191,
7.1690,-0.0167,0.0585,1.0208,0.0020,0.0208,-0.0458,0.0070,-0.0002,0.0002,1.3086,17.2243,-45.2178,
7.1860,-0.0163,0.0616,1.0261,0.0020,0.0208,-0.0458,0.0070,-0.0002,0.0002,1.3086,17.2243,-45.2178,
7.1880,-0.0163,0.0616,1.0261,0.0020,0.0208,-0.0458,0.0082,-0.0088,0.0018,1.3086,17.2243,-45.2178,
7.2000,-0.0132,0.0612,1.0284,0.0020,0.0208,-0.0458,0.0082,-0.0088,0.0018,1.3086,17.2243,-45.2178,
7.2010,-0.0132,0.0612,1.0284,0.0137,-0.0131,0.0636,0.0082,-0.0088,0.0018,1.3086,17.2243,-45.2178,
7.2310,-0.0132,0.0612,1.0284,0.0137,-0.0131,0.0636,0.0107,-0.0033,-0.0010,1.3086,17.2243,-45.2178,
7.2320,-0.0132,0.0612,1.0284,0.0137,-0.0131,0.0636,0.0107,-0.0033,-0.0010,1.3091,17.2452,-45.1779,
7.2320,-0.0115,0.0606,1.0266,0.0137,-0.0131,0.0636,0.0107,-0.0033,-0.0010,1.3091,17.2452,-45.1779,
7.2530,-0.0144,0.0589,1.0233,0.0137,-0.0131,0.0636,0.0107,-0.0033,-0.0010,1.3091,17.2452,-45.1779,
7.2570,-0.0144,0.0589,1.0233,0.0137,-0.0131,0.0636,-0.0019,0.0007,-0.0013,1.3091,17.2452,-45.1779,
7.2580,-0.0144,0.0589,1.0233,-0.0001,-0.0074,0.0042,-0.0019,0.0007,-0.0013,1.3091,17.2452,-45.1779,
7.2590,-0.0149,0.0563,1.0228,-0.0001,-0.0074,0.0042,-0.0019,0.0007,-0.0013,1.3091,17.2452,-45.1779,
7.2970,-0.0149,0.0563,1.0228,-0.0001,-0.0074,0.0042,-0.0019,0.0007,-0.0013,1.2467,17.2461,-45.0645,
7.2990,-0.0149,0.0563,1.0228,-0.0001,-0.0074,0.0042,-0.0129,0.0022,0.0027,1.2467,17.2461,-45.0645,
7.2990,-0.0165,0.0567,1.0263,-0.0001,-0.0074,0.0042,-0.0129,0.0022,0.0027,1.2467,17.2461,-45.0645,
7.3000,-0.0166,0.0574,1.0273,-0.0001,-0.0074,0.0042,-0.0129,0.0022,0.0027,1.2467,17.2461,-45.0645,
7.3190,-0.0159,0.0581,1.0257,-0.0001,-0.0074,0.0042,-0.0129,0.0022,0.0027,1.2467,17.2461,-45.0645,
7.3360,-0.0166,0.0590,1.0229,-0.0001,-0.0074,0.0042,-0.0129,0.0022,0.0027,1.2467,17.2461,-45.0645,
7.3380,-0.0166,0.0590,1.0229,-0.0001,-0.0074,0.0042,-0.0046,0.0013,0.0021,1.2467,17.2461,-45.0645,
7.3380,-0.0166,0.0590,1.0229,0.0114,-0.0163,-0.0001,-0.0046,0.0013,0.0021,1.2467,17.2461,-45.0645,
7.3640,-0.0166,0.0590,1.0229,0.0114,-0.0163,-0.0001,-0.0046,0.0013,0.0021,1.2365,17.2628,-45.1409,
7.3660,-0.0163,0.0588,1.0217,0.0114,-0.0163,-0.0001,-0.0046,0.0013,0.0021,1.2365,17.2628,-45.1409,
7.3850,-0.0144,0.0583,1.0257,0.0114,-0.0163,-0.0001,-0.0046,0.0013,0.0021,1.2365,17.2628,-45.1409,
7.3860,-0.0144,0.0583,1.0257,0.0114,-0.0163,-0.0001,-0.0086,-0.0014,0.0005,1.2365,17.2628,-45.1409,
7.3940,-0.0117,0.0585,1.0302,0.0114,-0.0163,-0.0001,-0.0086,-0.0014,0.0005,1.2365,17.2628,-45.1409,
7.3950,-0.0117,0.0585,1.0302,-0.0104,-0.0115,0.0097,-0.0086,-0.0014,0.0005,1.2365,17.2628,-45.1409,
7.4310,-0.0117,0.0585,1.0302,-0.0104,-0.0115,0.0097,-0.0086,-0.0014,0.0005,1.2225,17.2336,-45.1175,
7.4320,-0.0141,0.0600,1.0294,-0.0104,-0.0115,0.0097,-0.0086,-0.0014,0.0005,1.2225,17.2336,-45.1175,
7.4320,-0.0141,0.0600,1.0294,-0.0104,-0.0115,0.0097,-0.0031,-0.0026,-0.0016,1.2225,17.2336,-45.1175,
7.4520,-0.0150,0.0607,1.0252,-0.0104,-0.0115,0.0097,-0.0031,-0.0026,-0.0016,1.2225,17.2336,-45.1175,
7.4720,-0.0128,0.0604,1.0221,-0.0104,-0.0115,0.0097,-0.0031,-0.0026,-0.0016,1.2225,17.2336,-45.1175,
7.4730,-0.0128,0.0604,1.0221,-0.0104,-0.0115,0.0097,-0.0046,0.0083,0.0021,1.2225,17.2336,-45.1175,
7.4740,-0.0126,0.0592,1.0225,-0.0104,-0.0115,0.0097,-0.0046,0.0083,0.0021,1.2225,17.2336,-45.1175,
7.4750,-0.0126,0.0592,1.0225,0.0105,-0.0023,0.0154,-0.0046,0.0083,0.0021,1.2225,17.2336,-45.1175,
7.4970,-0.0141,0.0577,1.0261,0.0105,-0.0023,0.0154,-0.0046,0.0083,0.0021,1.2225,17.2336,-45.1175,
7.4990,-0.0141,0.0577,1.0261,0.0105,-0.0023,0.0154,-0.0046,0.0083,0.0021,1.2623,17.2937,-45.1252,
7.4990,-0.0141,0.0577,1.0261,0.0105,-0.0023,0.0154,-0.0214,0.0135,0.0011,1.2623,17.2937,-45.1252,
7.5180,-0.0133,0.0559,1.0278,0.0105,-0.0023,0.0154,-0.0214,0.0135,0.0011,1.2623,17.2937,-45.1252,
7.5300,-0.0133,0.0559,1.0278,0.0199,0.0191,-0.0058,-0.0214,0.0135,0.0011,1.2623,17.2937,-45.1252,
7.5310,-0.0133,0.0559,1.0278,0.0199,0.0191,-0.0058,-0.0101,0.0096,-0.0013,1.2623,17.2937,-45.1252,
7.5320,-0.0145,0.0554,1.0252,0.0199,0.0191,-0.0058,-0.0101,0.0096,-0.0013,1.2623,17.2937,-45.1252,
7.5640,-0.0172,0.0545,1.0206,0.0199,0.0191,-0.0058,-0.0101,0.0096,-0.0013,1.2623,17.2937,-45.1252,
7.5660,-0.0172,0.0545,1.0206,0.0199,0.0191,-0.0058,-0.0101,0.0096,-0.0013,1.2392,17.3449,-45.0200,
7.5860,-0.0191,0.0559,1.0180,0.0199,0.0191,-0.0058,-0.0101,0.0096,-0.0013,1.2392,17.3449,-45.0200,
7.5880,-0.0191,0.0559,1.0180,0.0199,0.0191,-0.0058,0.0006,-0.0005,0.0014,1.2392,17.3449,-45.0200,
7.6090,-0.0191,0.0559,1.0180,0.0149,-0.0157,0.0087,0.0006,-0.0005,0.0014,1.2392,17.3449,-45.0200,
7.6110,-0.0166,0.0584,1.0191,0.0149,-0.0157,0.0087,0.0006,-0.0005,0.0014,1.2392,17.3449,-45.0200,
7.6110,-0.0158,0.0601,1.0218,0.0149,-0.0157,0.0087,0.0006,-0.0005,0.0014,1.2392,17.3449,-45.0200,
7.6120,-0.0158,0.0601,1.0218,0.0149,-0.0157,0.0087,-0.0083,-0.0017,0.0024,1.2392,17.3449,-45.0200,
7.6310,-0.0156,0.0568,1.0329,0.0149,-0.0157,0.0087,-0.0083,-0.0017,0.0024,1.2392,17.3449,-45.0200,
7.6320,-0.0156,0.0568,1.0329,0.0149,-0.0157,0.0087,-0.0083,-0.0017,0.0024,1.2883,17.3683,-44.9655,
7.6520,-0.0163,0.0532,1.0405,0.0149,-0.0157,0.0087,-0.0083,-0.0017,0.0024,1.2883,17.3683,-44.9655,
7.6540,-0.0163,0.0532,1.0405,0.0149,-0.0157,0.0087,-0.0010,0.0041,0.0014,1.2883,17.3683,-44.9655,
7.6670,-0.0163,0.0532,1.0405,-0.0113,0.0055,-0.0467,-0.0010,0.0041,0.0014,1.2883,17.3683,-44.9655,
7.6680,-0.0121,0.0522,1.0332,-0.0113,0.0055,-0.0467,-0.0010,0.0041,0.0014,1.2883,17.3683,-44.9655,
7.6970,-0.0143,0.0545,1.0122,-0.0113,0.0055,-0.0467,-0.0010,0.0041,0.0014,1.2883,17.3683,-44.9655,
7.6980,-0.0143,0.0545,1.0122,-0.0113,0.0055,-0.0467,-0.0010,0.0041,0.0014,1.2900,17.4084,-44.9372,
7.6990,-0.0143,0.0545,1.0122,-0.0113,0.0055,-0.0467,0.0223,-0.0140,-0.0016,1.2900,17.4084,-44.9372,
7.7180,-0.0194,0.0566,1.0052,-0.0113,0.0055,-0.0467,0.0223,-0.0140,-0.0016,1.2900,17.4084,-44.9372,
7.7470,-0.0167,0.0594,1.0067,-0.0113,0.0055,-0.0467,0.0223,-0.0140,-0.0016,1.2900,17.4084,-44.9372,
7.7490,-0.0138,0.0631,1.0205,-0.0113,0.0055,-0.0467,0.0223,-0.0140,-0.0016,1.2900,17.4084,-44.9372,
7.7490,-0.0138,0.0631,1.0205,-0.0113,0.0055,-0.0467,-0.0324,0.0019,0.0014,1.2900,17.4084,-44.9372,
7.7500,-0.0138,0.0631,1.0205,0.0101,-0.0363,0.0751,-0.0324,0.0019,0.0014,1.2900,17.4084,-44.9372,
7.7640,-0.0138,0.0631,1.0205,0.0101,-0.0363,0.0751,-0.0324,0.0019,0.0014,1.3053,17.4569,-44.9722,
7.7850,-0.0160,0.0618,1.0388,0.0101,-0.0363,0.0751,-0.0324,0.0019,0.0014,1.3053,17.4569,-44.9722,
7.7860,-0.0160,0.0618,1.0388,0.0101,-0.0363,0.0751,-0.0575,0.0053,-0.0028,1.3053,17.4569,-44.9722,
7.7870,-0.0169,0.0524,1.0471,0.0101,-0.0363,0.0751,-0.0575,0.0053,-0.0028,1.3053,17.4569,-44.9722,
7.8030,-0.0169,0.0524,1.0471,0.0101,-0.0363,0.0751,0.0253,0.0169,0.0008,1.3053,17.4569,-44.9722,
7.8050,-0.0154,0.0466,1.0371,0.0101,-0.0363,0.0751,0.0253,0.0169,0.0008,1.3053,17.4569,-44.9722,
7.8060,-0.0154,0.0466,1.0371,-0.0083,0.0437,-0.1319,0.0253,0.0169,0.0008,1.3053,17.4569,-44.9722,
7.8300,-0.0154,0.0466,1.0371,-0.0083,0.0437,-0.1319,0.0253,0.0169,0.0008,1.2826,17.4738,-45.0233,
7.8320,-0.0159,0.0480,1.0255,-0.0083,0.0437,-0.1319,0.0253,0.0169,0.0008,1.2826,17.4738,-45.0233,
7.8510,-0.0159,0.0480,1.0255,-0.0083,0.0437,-0.1319,0.0470,0.0206,-0.0007,1.2826,17.4738,-45.0233,
7.8520,-0.0183,0.0530,1.0241,-0.0083,0.0437,-0.1319,0.0470,0.0206,-0.0007,1.2826,17.4738,-45.0233,
7.8830,-0.0183,0.0530,1.0241,-0.0083,0.0437,-0.1319,0.0052,0.0068,0.0014,1.2826,17.4738,-45.0233,
7.8850,-0.0176,0.0576,1.0228,-0.0083,0.0437,-0.1319,0.0052,0.0068,0.0014,1.2826,17.4738,-45.0233,
7.8860,-0.0160,0.0578,1.0201,-0.0083,0.0437,-0.1319,0.0052,0.0068,0.0014,1.2826,17.4738,-45.0233,
7.8870,-0.0160,0.0578,1.0201,0.0094,-0.0394,0.1340,0.0052,0.0068,0.0014,1.2826,17.4738,-45.0233,
7.8970,-0.0160,0.0578,1.0201,0.0094,-0.0394,0.1340,0.0052,0.0068,0.0014,1.2697,17.4638,-45.0116,
7.9180,-0.0160,0.0570,1.0146,0.0094,-0.0394,0.1340,0.0052,0.0068,0.0014,1.2697,17.4638,-45.0116,
7.9410,-0.0160,0.0570,1.0146,0.0022,-0.0154,-0.0233,0.0052,0.0068,0.0014,1.2697,17.4638,-45.0116,
7.9420,-0.0159,0.0546,1.0162,0.0022,-0.0154,-0.0233,0.0052,0.0068,0.0014,1.2697,17.4638,-45.0116,
7.9430,-0.0173,0.0537,1.0264,0.0022,-0.0154,-0.0233,0.0052,0.0068,0.0014,1.2697,17.4638,-45.0116,
7.9430,-0.0173,0.0537,1.0264,0.0022,-0.0154,-0.0233,-0.0245,-0.0054,0.0011,1.2697,17.4638,-45.0116,
7.9640,-0.0173,0.0537,1.0264,0.0022,-0.0154,-0.0233,-0.0245,-0.0054,0.0011,1.2470,17.4918,-45.0235,
7.9650,-0.0191,0.0545,1.0301,0.0022,-0.0154,-0.0233,-0.0245,-0.0054,0.0011,1.2470,17.4918,-45.0235,
7.9660,-0.0191,0.0545,1.0301,0.0022,-0.0154,-0.0233,-0.0199,-0.0033,-0.0001,1.2470,17.4918,-45.0235,
7.9840,-0.0170,0.0578,1.0269,0.0022,-0.0154,-0.0233,-0.0199,-0.0033,-0.0001,1.2470,17.4918,-45.0235,
8.0190,-0.0155,0.0579,1.0313,0.0022,-0.0154,-0.0233,-0.0199,-0.0033,-0.0001,1.2470,17.4918,-45.0235,
8.0200,-0.0155,0.0579,1.0313,0.0022,-0.0154,-0.0233,0.0030,0.0044,0.0014,1.2470,17.4918,-45.0235,
8.0210,-0.0130,0.0537,1.0390,0.0022,-0.0154,-0.0233,0.0030,0.0044,0.0014,1.2470,17.4918,-45.0235,
8.0210,-0.0130,0.0537,1.0390,0.0022,-0.0037,-0.0372,0.0030,0.0044,0.0014,1.2470,17.4918,-45.0235,
8.0290,-0.0130,0.0537,1.0390,0.0022,-0.0037,-0.0372,0.0030,0.0044,0.0014,1.2226,17.4907,-45.0244,
8.0520,-0.0150,0.0519,1.0338,0.0022,-0.0037,-0.0372,0.0030,0.0044,0.0014,1.2226,17.4907,-45.0244,
8.0530,-0.0150,0.0519,1.0338,0.0022,-0.0037,-0.0372,0.0128,0.0117,0.0014,1.2226,17.4907,-45.0244,
8.0770,-0.0175,0.0544,1.0272,0.0022,-0.0037,-0.0372,0.0128,0.0117,0.0014,1.2226,17.4907,-45.0244,
8.0790,-0.0177,0.0567,1.0257,0.0022,-0.0037,-0.0372,0.0128,0.0117,0.0014,1.2226,17.4907,-45.0244,
8.0820,-0.0177,0.0567,1.0257,0.0175,0.0040,0.0649,0.0128,0.0117,0.0014,1.2226,17.4907,-45.0244,
8.0820,-0.0177,0.0567,1.0257,0.0175,0.0040,0.0649,0.0134,0.0050,0.0030,1.2226,17.4907,-45.0244,
8.0970,-0.0177,0.0567,1.0257,0.0175,0.0040,0.0649,0.0134,0.0050,0.0030,1.2593,17.4809,-45.0751,
8.0990,-0.0175,0.0583,1.0225,0.0175,0.0040,0.0649,0.0134,0.0050,0.0030,1.2593,17.4809,-45.0751,
8.1180,-0.0153,0.0581,1.0146,0.0175,0.0040,0.0649,0.0134,0.0050,0.0030,1.2593,17.4809,-45.0751,
8.1200,-0.0153,0.0581,1.0146,0.0175,0.0040,0.0649,0.0006,0.0074,0.0036,1.2593,17.4809,-45.0751,
8.1560,-0.0153,0.0581,1.0146,0.0093,-0.0144,0.0246,0.0006,0.0074,0.0036,1.2593,17.4809,-45.0751,
8.1570,-0.0153,0.0581,1.0146,0.0093,-0.0144,0.0246,-0.0239,0.0044,-0.0010,1.2593,17.4809,-45.0751,
8.1580,-0.0165,0.0551,1.0123,0.0093,-0.0144,0.0246,-0.0239,0.0044,-0.0010,1.2593,17.4809,-45.0751,
8.1590,-0.0191,0.0510,1.0181,0.0093,-0.0144,0.0246,-0.0239,0.0044,-0.0010,1.2593,17.4809,-45.0751,
8.1630,-0.0191,0.0510,1.0181,0.0093,-0.0144,0.0246,-0.0239,0.0044,-0.0010,1.2490,17.5200,-45.0602,
8.1850,-0.0176,0.0490,1.0230,0.0093,-0.0144,0.0246,-0.0239,0.0044,-0.0010,1.2490,17.5200,-45.0602,
8.2140,-0.0176,0.0490,1.0230,0.0095,0.0037,-0.0852,-0.0239,0.0044,-0.0010,1.2490,17.5200,-45.0602,
8.2160,-0.0176,0.0490,1.0230,0.0095,0.0037,-0.0852,-0.0202,0.0093,0.0014,1.2490,17.5200,-45.0602,
8.2160,-0.0177,0.0515,1.0278,0.0095,0.0037,-0.0852,-0.0202,0.0093,0.0014,1.2490,17.5200,-45.0602,
8.2170,-0.0182,0.0530,1.0293,0.0095,0.0037,-0.0852,-0.0202,0.0093,0.0014,1.2490,17.5200,-45.0602,
8.2300,-0.0182,0.0530,1.0293,0.0095,0.0037,-0.0852,-0.0202,0.0093,0.0014,1.2982,17.5324,-45.0448,
8.2530,-0.0177,0.0539,1.0242,0.0095,0.0037,-0.0852,-0.0202,0.0093,0.0014,1.2982,17.5324,-45.0448,
8.2550,-0.0177,0.0539,1.0242,0.0095,0.0037,-0.0852,0.0048,0.0108,0.0008,1.2982,17.5324,-45.0448,
8.2930,-0.0188,0.0555,1.0200,0.0095,0.0037,-0.0852,0.0048,0.0108,0.0008,1.2982,17.5324,-45.0448,
8.2960,-0.0208,0.0552,1.0211,0.0095,0.0037,-0.0852,0.0048,0.0108,0.0008,1.2982,17.5324,-45.0448,
8.2960,-0.0184,0.0550,1.0203,0.0095,0.0037,-0.0852,0.0048,0.0108,0.0008,1.2982,17.5324,-45.0448,
8.2970,-0.0184,0.0550,1.0203,0.0095,0.0037,-0.0852,-0.0031,0.0077,0.0021,1.2982,17.5324,-45.0448,
8.2980,-0.0184,0.0550,1.0203,0.0088,-0.0278,0.0168,-0.0031,0.0077,0.0021,1.2982,17.5324,-45.0448,
8.2980,-0.0184,0.0550,1.0203,0.0088,-0.0278,0.0168,-0.0031,0.0077,0.0021,1.3226,17.5446,-45.0047,
8.3200,-0.0170,0.0552,1.0151,0.0088,-0.0278,0.0168,-0.0031,0.0077,0.0021,1.3226,17.5446,-45.0047,
8.3210,-0.0170,0.0552,1.0151,0.0088,-0.0278,0.0168,-0.0193,-0.0023,0.0005,1.3226,17.5446,-45.0047,
8.3520,-0.0170,0.0554,1.0150,0.0088,-0.0278,0.0168,-0.0193,-0.0023,0.0005,1.3226,17.5446,-45.0047,
8.3530,-0.0188,0.0550,1.0255,0.0088,-0.0278,0.0168,-0.0193,-0.0023,0.0005,1.3226,17.5446,-45.0047,
8.3530,-0.0188,0.0550,1.0255,-0.0034,0.0125,-0.0354,-0.0193,-0.0023,0.0005,1.3226,17.5446,-45.0047,
8.3540,-0.0188,0.0550,1.0255,-0.0034,0.0125,-0.0354,-0.0287,-0.0063,-0.0013,1.3226,17.5446,-45.0047,
8.3620,-0.0188,0.0550,1.0255,-0.0034,0.0125,-0.0354,-0.0287,-0.0063,-0.0013,1.3236,17.5752,-44.9642,
8.3860,-0.0192,0.0528,1.0348,-0.0034,0.0125,-0.0354,-0.0287,-0.0063,-0.0013,1.3236,17.5752,-44.9642,
8.4290,-0.0192,0.0528,1.0348,0.0066,0.0207,-0.0323,-0.0287,-0.0063,-0.0013,1.3236,17.5752,-44.9642,
8.4300,-0.0192,0.0528,1.0348,0.0066,0.0207,-0.0323,0.0064,0.0013,0.0021,1.3236,17.5752,-44.9642,
8.4310,-0.0184,0.0517,1.0295,0.0066,0.0207,-0.0323,0.0064,0.0013,0.0021,1.3236,17.5752,-44.9642,
8.4320,-0.0184,0.0517,1.0295,0.0066,0.0207,-0.0323,0.0183,-0.0081,-0.0001,1.3236,17.5752,-44.9642,
8.4330,-0.0183,0.0504,1.0201,0.0066,0.0207,-0.0323,0.0183,-0.0081,-0.0001,1.3236,17.5752,-44.9642,
8.4330,-0.0178,0.0522,1.0175,0.0066,0.0207,-0.0323,0.0183,-0.0081,-0.0001,1.3236,17.5752,-44.9642,
8.4330,-0.0178,0.0522,1.0175,0.0066,0.0207,-0.0323,0.0183,-0.0081,-0.0001,1.2886,17.6141,-44.9245,
8.4510,-0.0187,0.0513,1.0225,0.0066,0.0207,-0.0323,0.0183,-0.0081,-0.0001,1.2886,17.6141,-44.9245,
8.4880,-0.0197,0.0507,1.0256,0.0066,0.0207,-0.0323,0.0183,-0.0081,-0.0001,1.2886,17.6141,-44.9245,
8.4890,-0.0181,0.0515,1.0195,0.0066,0.0207,-0.0323,0.0183,-0.0081,-0.0001,1.2886,17.6141,-44.9245,
8.4900,-0.0181,0.0515,1.0195,-0.0026,-0.0196,0.0015,0.0183,-0.0081,-0.0001,1.2886,17.6141,-44.9245,
8.4900,-0.0181,0.0515,1.0195,-0.0026,-0.0196,0.0015,-0.0003,-0.0048,-0.0010,1.2886,17.6141,-44.9245,
8.4960,-0.0181,0.0515,1.0195,-0.0026,-0.0196,0.0015,-0.0003,-0.0048,-0.0010,1.3174,17.6819,-44.9835,
8.5190,-0.0181,0.0515,1.0195,-0.0026,-0.0196,0.0015,-0.0065,0.0001,-0.0001,1.3174,17.6819,-44.9835,
8.5210,-0.0155,0.0540,1.0172,-0.0026,-0.0196,0.0015,-0.0065,0.0001,-0.0001,1.3174,17.6819,-44.9835,
8.5640,-0.0172,0.0548,1.0211,-0.0026,-0.0196,0.0015,-0.0065,0.0001,-0.0001,1.3174,17.6819,-44.9835,
8.5650,-0.0172,0.0548,1.0211,-0.0026,-0.0196,0.0015,-0.0065,0.0001,-0.0001,1.3302,17.6808,-45.0345,
8.5660,-0.0172,0.0548,1.0211,-0.0026,-0.0196,0.0015,-0.0129,0.0019,0.0024,1.3302,17.6808,-45.0345,
8.5670,-0.0197,0.0510,1.0382,-0.0026,-0.0196,0.0015,-0.0129,0.0019,0.0024,1.3302,17.6808,-45.0345,
8.5670,-0.0180,0.0473,1.0465,-0.0026,-0.0196,0.0015,-0.0129,0.0019,0.0024,1.3302,17.6808,-45.0345,
8.5680,-0.0180,0.0473,1.0465,-0.0028,-0.0138,-0.0205,-0.0129,0.0019,0.0024,1.3302,17.6808,-45.0345,
8.5860,-0.0104,0.0472,1.0313,-0.0028,-0.0138,-0.0205,-0.0129,0.0019,0.0024,1.3302,17.6808,-45.0345,
8.5870,-0.0104,0.0472,1.0313,-0.0028,-0.0138,-0.0205,0.0372,-0.0042,0.0027,1.3302,17.6808,-45.0345,
8.6240,-0.0104,0.0472,1.0313,0.0010,-0.0223,0.0781,0.0372,-0.0042,0.0027,1.3302,17.6808,-45.0345,
8.6250,-0.0104,0.0472,1.0313,0.0010,-0.0223,0.0781,0.0027,-0.0109,-0.0041,1.3302,17.6808,-45.0345,
8.6260,-0.0136,0.0526,1.0017,0.0010,-0.0223,0.0781,0.0027,-0.0109,-0.0041,1.3302,17.6808,-45.0345,
8.6270,-0.0206,0.0559,0.9999,0.0010,-0.0223,0.0781,0.0027,-0.0109,-0.0041,1.3302,17.6808,-45.0345,
8.6300,-0.0206,0.0559,0.9999,0.0010,-0.0223,0.0781,0.0027,-0.0109,-0.0041,1.3163,17.6512,-45.0240,
8.6520,-0.0187,0.0576,1.0194,0.0010,-0.0223,0.0781,0.0027,-0.0109,-0.0041,1.3163,17.6512,-45.0240,
8.6970,-0.0187,0.0576,1.0194,0.0010,-0.0223,0.0781,-0.0666,0.0099,0.0033,1.3163,17.6512,-45.0240,
8.6990,-0.0187,0.0576,1.0194,0.0010,-0.0223,0.0781,-0.0666,0.0099,0.0033,1.3406,17.6527,-45.0102,
8.7010,-0.0161,0.0588,1.0359,0.0010,-0.0223,0.0781,-0.0666,0.0099,0.0033,1.3406,17.6527,-45.0102,
8.7010,-0.0173,0.0565,1.0439,0.0010,-0.0223,0.0781,-0.0666,0.0099,0.0033,1.3406,17.6527,-45.0102,
8.7020,-0.0186,0.0488,1.0405,0.0010,-0.0223,0.0781,-0.0666,0.0099,0.0033,1.3406,17.6527,-45.0102,
8.7030,-0.0186,0.0488,1.0405,0.0010,-0.0223,0.0781,-0.0043,0.0083,-0.0016,1.3406,17.6527,-45.0102,
8.7030,-0.0186,0.0488,1.0405,0.0206,0.0062,-0.1167,-0.0043,0.0083,-0.0016,1.3406,17.6527,-45.0102,
8.7610,-0.0186,0.0488,1.0405,0.0206,0.0062,-0.1167,0.0394,0.0193,-0.0010,1.3406,17.6527,-45.0102,
8.7630,-0.0159,0.0433,1.0272,0.0206,0.0062,-0.1167,0.0394,0.0193,-0.0010,1.3406,17.6527,-45.0102,
8.7630,-0.0153,0.0440,1.0173,0.0206,0.0062,-0.1167,0.0394,0.0193,-0.0010,1.3406,17.6527,-45.0102,
8.7640,-0.0178,0.0482,1.0130,0.0206,0.0062,-0.1167,0.0394,0.0193,-0.0010,1.3406,17.6527,-45.0102,
8.7640,-0.0178,0.0482,1.0130,0.0075,0.0283,0.1263,0.0394,0.0193,-0.0010,1.3406,17.6527,-45.0102,
8.7650,-0.0178,0.0482,1.0130,0.0075,0.0283,0.1263,0.0394,0.0193,-0.0010,1.3529,17.6529,-45.0226,
8.7860,-0.0203,0.0538,1.0148,0.0075,0.0283,0.1263,0.0394,0.0193,-0.0010,1.3529,17.6529,-45.0226,
8.7870,-0.0203,0.0538,1.0148,0.0075,0.0283,0.1263,0.0006,0.0151,0.0014,1.3529,17.6529,-45.0226,
8.8320,-0.0205,0.0537,1.0201,0.0075,0.0283,0.1263,0.0006,0.0151,0.0014,1.3529,17.6529,-45.0226,
8.8330,-0.0192,0.0524,1.0257,0.0075,0.0283,0.1263,0.0006,0.0151,0.0014,1.3529,17.6529,-45.0226,
8.8340,-0.0192,0.0524,1.0257,0.0075,0.0283,0.1263,-0.0165,-0.0045,0.0030,1.3529,17.6529,-45.0226,
8.8340,-0.0192,0.0524,1.0257,0.0075,0.0283,0.1263,-0.0165,-0.0045,0.0030,1.3910,17.6839,-45.0193,
8.8390,-0.0208,0.0506,1.0310,0.0075,0.0283,0.1263,-0.0165,-0.0045,0.0030,1.3910,17.6839,-45.0193,
8.8390,-0.0208,0.0506,1.0310,0.0210,-0.0577,-0.0567,-0.0165,-0.0045,0.0030,1.3910,17.6839,-45.0193,
8.8990,-0.0208,0.0506,1.0310,0.0210,-0.0577,-0.0567,0.0058,-0.0100,-0.0010,1.3910,17.6839,-45.0193,
8.9000,-0.0194,0.0506,1.0317,0.0210,-0.0577,-0.0567,0.0058,-0.0100,-0.0010,1.3910,17.6839,-45.0193,
8.9000,-0.0194,0.0506,1.0317,0.0210,-0.0577,-0.0567,0.0058,-0.0100,-0.0010,1.4166,17.7043,-45.0300,
8.9010,-0.0172,0.0537,1.0218,0.0210,-0.0577,-0.0567,0.0058,-0.0100,-0.0010,1.4166,17.7043,-45.0300,
8.9020,-0.0172,0.0537,1.0218,0.0210,-0.0577,-0.0567,-0.0022,-0.0023,-0.0016,1.4166,17.7043,-45.0300,
8.9020,-0.0161,0.0559,1.0161,0.0210,-0.0577,-0.0567,-0.0022,-0.0023,-0.0016,1.4166,17.7043,-45.0300,
8.9030,-0.0161,0.0559,1.0161,-0.0151,0.0055,-0.0001,-0.0022,-0.0023,-0.0016,1.4166,17.7043,-45.0300,
8.9180,-0.0176,0.0552,1.0258,-0.0151,0.0055,-0.0001,-0.0022,-0.0023,-0.0016,1.4166,17.7043,-45.0300,
8.9630,-0.0147,0.0474,1.0385,-0.0151,0.0055,-0.0001,-0.0022,-0.0023,-0.0016,1.4166,17.7043,-45.0300,
8.9640,-0.0147,0.0474,1.0385,-0.0151,0.0055,-0.0001,-0.0275,0.0087,0.0024,1.4166,17.7043,-45.0300,
8.9650,-0.0147,0.0474,1.0385,-0.0151,0.0055,-0.0001,-0.0275,0.0087,0.0024,1.4910,17.7268,-45.0388,
8.9650,-0.0169,0.0454,1.0297,-0.0151,0.0055,-0.0001,-0.0275,0.0087,0.0024,1.4910,17.7268,-45.0388,
8.9740,-0.0189,0.0495,1.0119,-0.0151,0.0055,-0.0001,-0.0275,0.0087,0.0024,1.4910,17.7268,-45.0388,
8.9760,-0.0189,0.0495,1.0119,-0.0151,0.0055,-0.0001,0.0143,0.0044,0.0014,1.4910,17.7268,-45.0388,
8.9760,-0.0189,0.0495,1.0119,0.0080,0.0254,-0.0109,0.0143,0.0044,0.0014,1.4910,17.7268,-45.0388,
9.0320,-0.0183,0.0540,1.0126,0.0080,0.0254,-0.0109,0.0143,0.0044,0.0014,1.4910,17.7268,-45.0388,
9.0340,-0.0183,0.0540,1.0126,0.0080,0.0254,-0.0109,0.0045,-0.0121,0.0024,1.4910,17.7268,-45.0388,
9.0350,-0.0180,0.0549,1.0250,0.0080,0.0254,-0.0109,0.0045,-0.0121,0.0024,1.4910,17.7268,-45.0388,
9.0350,-0.0180,0.0549,1.0250,0.0080,0.0254,-0.0109,0.0045,-0.0121,0.0024,1.5147,17.7184,-45.0257,
9.0360,-0.0166,0.0505,1.0323,0.0080,0.0254,-0.0109,0.0045,-0.0121,0.0024,1.5147,17.7184,-45.0257,
9.0370,-0.0166,0.0505,1.0323,0.0177,-0.0306,0.0268,0.0045,-0.0121,0.0024,1.5147,17.7184,-45.0257,
9.0960,-0.0166,0.0483,1.0282,0.0177,-0.0306,0.0268,0.0045,-0.0121,0.0024,1.5147,17.7184,-45.0257,
9.0980,-0.0166,0.0483,1.0282,0.0177,-0.0306,0.0268,0.0122,-0.0017,-0.0016,1.5147,17.7184,-45.0257,
9.0980,-0.0166,0.0483,1.0282,0.0177,-0.0306,0.0268,-0.0040,0.0001,-0.0004,1.5147,17.7184,-45.0257,
9.0990,-0.0171,0.0483,1.0260,0.0177,-0.0306,0.0268,-0.0040,0.0001,-0.0004,1.5147,17.7184,-45.0257,
9.0990,-0.0176,0.0497,1.0273,0.0177,-0.0306,0.0268,-0.0040,0.0001,-0.0004,1.5147,17.7184,-45.0257,
9.1000,-0.0176,0.0497,1.0273,0.0177,-0.0306,0.0268,-0.0040,0.0001,-0.0004,1.5394,17.7297,-45.0113,
9.1130,-0.0184,0.0513,1.0268,0.0177,-0.0306,0.0268,-0.0040,0.0001,-0.0004,1.5394,17.7297,-45.0113,
9.1140,-0.0184,0.0513,1.0268,0.0057,0.0048,-0.0015,-0.0040,0.0001,-0.0004,1.5394,17.7297,-45.0113,
9.1660,-0.0184,0.0513,1.0268,0.0057,0.0048,-0.0015,-0.0040,0.0001,-0.0004,1.5906,17.7704,-45.0326,
9.1680,-0.0188,0.0507,1.0252,0.0057,0.0048,-0.0015,-0.0040,0.0001,-0.0004,1.5906,17.7704,-45.0326,
9.1680,-0.0188,0.0507,1.0252,0.0057,0.0048,-0.0015,-0.0080,0.0080,0.0005,1.5906,17.7704,-45.0326,
9.1690,-0.0192,0.0490,1.0256,0.0057,0.0048,-0.0015,-0.0080,0.0080,0.0005,1.5906,17.7704,-45.0326,
9.1700,-0.0192,0.0490,1.0256,0.0057,0.0048,-0.0015,0.0055,0.0041,0.0008,1.5906,17.7704,-45.0326,
9.1710,-0.0192,0.0490,1.0256,0.0078,-0.0187,0.0197,0.0055,0.0041,0.0008,1.5906,17.7704,-45.0326,
9.1710,-0.0191,0.0495,1.0222,0.0078,-0.0187,0.0197,0.0055,0.0041,0.0008,1.5906,17.7704,-45.0326,
9.2330,-0.0191,0.0495,1.0222,0.0078,-0.0187,0.0197,0.0027,-0.0118,0.0008,1.5906,17.7704,-45.0326,
9.2350,-0.0191,0.0495,1.0222,0.0078,-0.0187,0.0197,0.0027,-0.0118,0.0008,1.6406,17.7918,-45.0424,
9.2360,-0.0176,0.0495,1.0189,0.0078,-0.0187,0.0197,0.0027,-0.0118,0.0008,1.6406,17.7918,-45.0424,
9.2370,-0.0178,0.0524,1.0179,0.0078,-0.0187,0.0197,0.0027,-0.0118,0.0008,1.6406,17.7918,-45.0424,
9.2370,-0.0178,0.0533,1.0230,0.0078,-0.0187,0.0197,0.0027,-0.0118,0.0008,1.6406,17.7918,-45.0424,
9.2490,-0.0178,0.0539,1.0305,0.0078,-0.0187,0.0197,0.0027,-0.0118,0.0008,1.6406,17.7918,-45.0424,
9.2500,-0.0178,0.0539,1.0305,0.0078,-0.0187,0.0197,-0.0120,-0.0069,-0.0004,1.6406,17.7918,-45.0424,
9.2500,-0.0178,0.0539,1.0305,-0.0055,-0.0171,-0.0091,-0.0120,-0.0069,-0.0004,1.6406,17.7918,-45.0424,
9.2970,-0.0178,0.0539,1.0305,-0.0055,-0.0171,-0.0091,-0.0006,0.0105,-0.0001,1.6406,17.7918,-45.0424,
9.2990,-0.0170,0.0516,1.0328,-0.0055,-0.0171,-0.0091,-0.0006,0.0105,-0.0001,1.6406,17.7918,-45.0424,
9.2990,-0.0170,0.0516,1.0328,-0.0055,-0.0171,-0.0091,-0.0006,0.0105,-0.0001,1.5911,17.7802,-45.0320,
9.3000,-0.0167,0.0507,1.0284,-0.0055,-0.0171,-0.0091,-0.0006,0.0105,-0.0001,1.5911,17.7802,-45.0320,
9.3120,-0.0170,0.0510,1.0239,-0.0055,-0.0171,-0.0091,-0.0006,0.0105,-0.0001,1.5911,17.7802,-45.0320,
9.3130,-0.0170,0.0510,1.0239,0.0011,0.0157,-0.0132,-0.0006,0.0105,-0.0001,1.5911,17.7802,-45.0320,
9.3660,-0.0170,0.0510,1.0239,0.0011,0.0157,-0.0132,-0.0006,0.0105,-0.0001,1.5784,17.7588,-45.0723,
9.3680,-0.0170,0.0510,1.0239,0.0011,0.0157,-0.0132,-0.0000,0.0074,0.0005,1.5784,17.7588,-45.0723,
9.3680,-0.0172,0.0505,1.0262,0.0011,0.0157,-0.0132,-0.0000,0.0074,0.0005,1.5784,17.7588,-45.0723,
9.3690,-0.0154,0.0499,1.0316,0.0011,0.0157,-0.0132,-0.0000,0.0074,0.0005,1.5784,17.7588,-45.0723,
9.3850,-0.0165,0.0483,1.0297,0.0011,0.0157,-0.0132,-0.0000,0.0074,0.0005,1.5784,17.7588,-45.0723,
9.3870,-0.0165,0.0483,1.0297,0.0011,0.0157,-0.0132,0.0140,-0.0002,-0.0004,1.5784,17.7588,-45.0723,
9.3870,-0.0182,0.0483,1.0188,0.0011,0.0157,-0.0132,0.0140,-0.0002,-0.0004,1.5784,17.7588,-45.0723,
9.3880,-0.0182,0.0483,1.0188,0.0133,-0.0009,0.0297,0.0140,-0.0002,-0.0004,1.5784,17.7588,-45.0723,
9.4300,-0.0182,0.0483,1.0188,0.0133,-0.0009,0.0297,0.0137,-0.0039,0.0011,1.5784,17.7588,-45.0723,
9.4310,-0.0209,0.0515,1.0103,0.0133,-0.0009,0.0297,0.0137,-0.0039,0.0011,1.5784,17.7588,-45.0723,
9.4320,-0.0170,0.0533,1.0129,0.0133,-0.0009,0.0297,0.0137,-0.0039,0.0011,1.5784,17.7588,-45.0723,
9.4320,-0.0170,0.0533,1.0129,0.0133,-0.0009,0.0297,0.0137,-0.0039,0.0011,1.7002,17.7647,-45.0548,
9.4460,-0.0170,0.0533,1.0129,0.0126,-0.0281,0.0190,0.0137,-0.0039,0.0011,1.7002,17.7647,-45.0548,
9.4480,-0.0192,0.0538,1.0253,0.0126,-0.0281,0.0190,0.0137,-0.0039,0.0011,1.7002,17.7647,-45.0548,
9.4490,-0.0192,0.0538,1.0253,0.0126,-0.0281,0.0190,-0.0272,-0.0033,0.0018,1.7002,17.7647,-45.0548,
9.4980,-0.0192,0.0538,1.0253,0.0126,-0.0281,0.0190,-0.0028,0.0059,0.0030,1.7002,17.7647,-45.0548,
9.5000,-0.0193,0.0497,1.0395,0.0126,-0.0281,0.0190,-0.0028,0.0059,0.0030,1.7002,17.7647,-45.0548,
9.5020,-0.0193,0.0497,1.0395,0.0126,-0.0281,0.0190,-0.0028,0.0059,0.0030,1.6768,17.7722,-45.0937,
9.5030,-0.0167,0.0440,1.0456,0.0126,-0.0281,0.0190,-0.0028,0.0059,0.0030,1.6768,17.7722,-45.0937,
9.5180,-0.0126,0.0446,1.0324,0.0126,-0.0281,0.0190,-0.0028,0.0059,0.0030,1.6768,17.7722,-45.0937,
9.5210,-0.0170,0.0506,1.0079,0.0126,-0.0281,0.0190,-0.0028,0.0059,0.0030,1.6768,17.7722,-45.0937,
9.5210,-0.0170,0.0506,1.0079,0.0126,-0.0281,0.0190,0.0363,-0.0127,-0.0022,1.6768,17.7722,-45.0937,
9.5220,-0.0170,0.0506,1.0079,-0.0107,0.0187,-0.0525,0.0363,-0.0127,-0.0022,1.6768,17.7722,-45.0937,
9.5630,-0.0224,0.0534,1.0060,-0.0107,0.0187,-0.0525,0.0363,-0.0127,-0.0022,1.6768,17.7722,-45.0937,
9.5640,-0.0224,0.0534,1.0060,-0.0107,0.0187,-0.0525,-0.0339,0.0099,0.0014,1.6768,17.7722,-45.0937,
9.5650,-0.0224,0.0534,1.0060,-0.0107,0.0187,-0.0525,-0.0339,0.0099,0.0014,1.6288,17.7900,-45.0815,
9.5660,-0.0182,0.0541,1.0190,-0.0107,0.0187,-0.0525,-0.0339,0.0099,0.0014,1.6288,17.7900,-45.0815,
9.5800,-0.0182,0.0541,1.0190,0.0179,-0.0466,0.0560,-0.0339,0.0099,0.0014,1.6288,17.7900,-45.0815,
9.5820,-0.0172,0.0581,1.0304,0.0179,-0.0466,0.0560,-0.0339,0.0099,0.0014,1.6288,17.7900,-45.0815,
9.6310,-0.0172,0.0581,1.0304,0.0179,-0.0466,0.0560,-0.0339,0.0099,0.0014,1.6158,17.7915,-45.0176,
9.6330,-0.0176,0.0560,1.0385,0.0179,-0.0466,0.0560,-0.0339,0.0099,0.0014,1.6158,17.7915,-45.0176,
9.6330,-0.0161,0.0474,1.0417,0.0179,-0.0466,0.0560,-0.0339,0.0099,0.0014,1.6158,17.7915,-45.0176,
9.6340,-0.0161,0.0474,1.0417,0.0179,-0.0466,0.0560,-0.0425,0.0111,-0.0041,1.6158,17.7915,-45.0176,
9.6540,-0.0161,0.0401,1.0316,0.0179,-0.0466,0.0560,-0.0425,0.0111,-0.0041,1.6158,17.7915,-45.0176,
9.6560,-0.0161,0.0401,1.0316,0.0179,-0.0466,0.0560,0.0253,0.0200,0.0011,1.6158,17.7915,-45.0176,
9.6580,-0.0161,0.0401,1.0316,-0.0048,0.0595,-0.0357,0.0253,0.0200,0.0011,1.6158,17.7915,-45.0176,
9.6590,-0.0178,0.0421,1.0194,-0.0048,0.0595,-0.0357,0.0253,0.0200,0.0011,1.6158,17.7915,-45.0176,
9.6970,-0.0203,0.0496,1.0156,-0.0048,0.0595,-0.0357,0.0253,0.0200,0.0011,1.6158,17.7915,-45.0176,
9.6980,-0.0203,0.0496,1.0156,-0.0048,0.0595,-0.0357,0.0317,0.0203,-0.0004,1.6158,17.7915,-45.0176,
9.6990,-0.0209,0.0544,1.0217,-0.0048,0.0595,-0.0357,0.0317,0.0203,-0.0004,1.6158,17.7915,-45.0176,
9.7000,-0.0209,0.0544,1.0217,-0.0048,0.0595,-0.0357,0.0317,0.0203,-0.0004,1.6277,17.7818,-45.0306,
9.7170,-0.0209,0.0544,1.0217,0.0278,-0.0604,0.0677,0.0317,0.0203,-0.0004,1.6277,17.7818,-45.0306,
9.7180,-0.0209,0.0544,1.0217,0.0278,-0.0604,0.0677,-0.0052,-0.0023,0.0033,1.6277,17.7818,-45.0306,
9.7190,-0.0205,0.0527,1.0284,0.0278,-0.0604,0.0677,-0.0052,-0.0023,0.0033,1.6277,17.7818,-45.0306,
9.7640,-0.0189,0.0488,1.0263,0.0278,-0.0604,0.0677,-0.0052,-0.0023,0.0033,1.6277,17.7818,-45.0306,
9.7650,-0.0189,0.0488,1.0263,0.0278,-0.0604,0.0677,0.0036,-0.0057,0.0014,1.6277,17.7818,-45.0306,
9.7660,-0.0189,0.0488,1.0263,0.0278,-0.0604,0.0677,0.0036,-0.0057,0.0014,1.6392,17.7619,-45.0572,
9.7670,-0.0195,0.0482,1.0195,0.0278,-0.0604,0.0677,0.0036,-0.0057,0.0014,1.6392,17.7619,-45.0572,
9.7840,-0.0204,0.0496,1.0158,0.0278,-0.0604,0.0677,0.0036,-0.0057,0.0014,1.6392,17.7619,-45.0572,
9.7940,-0.0205,0.0522,1.0181,0.0278,-0.0604,0.0677,0.0036,-0.0057,0.0014,1.6392,17.7619,-45.0572,
9.7940,-0.0205,0.0522,1.0181,0.0278,-0.0604,0.0677,-0.0187,-0.0081,-0.0007,1.6392,17.7619,-45.0572,
9.7950,-0.0205,0.0522,1.0181,-0.0088,0.0081,-0.0229,-0.0187,-0.0081,-0.0007,1.6392,17.7619,-45.0572,
9.8320,-0.0204,0.0543,1.0284,-0.0088,0.0081,-0.0229,-0.0187,-0.0081,-0.0007,1.6392,17.7619,-45.0572,
9.8330,-0.0204,0.0543,1.0284,-0.0088,0.0081,-0.0229,-0.0187,-0.0081,-0.0007,1.7266,17.8050,-45.0514,
9.8520,-0.0184,0.0530,1.0420,-0.0088,0.0081,-0.0229,-0.0187,-0.0081,-0.0007,1.7266,17.8050,-45.0514,
9.8540,-0.0184,0.0530,1.0420,-0.0088,0.0081,-0.0229,-0.0233,0.0044,0.0030,1.7266,17.8050,-45.0514,
9.8550,-0.0155,0.0456,1.0448,-0.0088,0.0081,-0.0229,-0.0233,0.0044,0.0030,1.7266,17.8050,-45.0514,
9.8550,-0.0155,0.0456,1.0448,-0.0074,0.0008,-0.0557,-0.0233,0.0044,0.0030,1.7266,17.8050,-45.0514,
9.8970,-0.0155,0.0456,1.0448,-0.0074,0.0008,-0.0557,0.0311,0.0138,-0.0010,1.7266,17.8050,-45.0514,
9.8990,-0.0173,0.0456,1.0262,-0.0074,0.0008,-0.0557,0.0311,0.0138,-0.0010,1.7266,17.8050,-45.0514,
9.8990,-0.0173,0.0456,1.0262,-0.0074,0.0008,-0.0557,0.0311,0.0138,-0.0010,1.6777,17.8143,-45.0012,
9.9000,-0.0200,0.0523,1.0101,-0.0074,0.0008,-0.0557,0.0311,0.0138,-0.0010,1.6777,17.8143,-45.0012,
9.9180,-0.0197,0.0545,1.0135,-0.0074,0.0008,-0.0557,0.0311,0.0138,-0.0010,1.6777,17.8143,-45.0012,
9.9190,-0.0197,0.0545,1.0135,-0.0074,0.0008,-0.0557,0.0082,-0.0054,0.0021,1.6777,17.8143,-45.0012,
9.9310,-0.0192,0.0539,1.0272,-0.0074,0.0008,-0.0557,0.0082,-0.0054,0.0021,1.6777,17.8143,-45.0012,
9.9320,-0.0192,0.0539,1.0272,0.0181,-0.0077,0.1138,0.0082,-0.0054,0.0021,1.6777,17.8143,-45.0012,
9.9640,-0.0192,0.0539,1.0272,0.0181,-0.0077,0.1138,0.0082,-0.0054,0.0021,1.5798,17.7997,-45.0183,
9.9650,-0.0192,0.0539,1.0272,0.0181,-0.0077,0.1138,-0.0126,-0.0011,0.0005,1.5798,17.7997,-45.0183,
9.9660,-0.0173,0.0497,1.0346,0.0181,-0.0077,0.1138,-0.0126,-0.0011,0.0005,1.5798,17.7997,-45.0183,
9.9860,-0.0171,0.0456,1.0275,0.0181,-0.0077,0.1138,-0.0126,-0.0011,0.0005,1.5798,17.7997,-45.0183,
9.9890,-0.0171,0.0456,1.0275,0.0181,-0.0077,0.1138,0.0119,-0.0020,-0.0031,1.5798,17.7997,-45.0183,
9.9900,-0.0180,0.0456,1.0213,0.0181,-0.0077,0.1138,0.0119,-0.0020,-0.0031,1.5798,17.7997,-45.0183,
9.9910,-0.0180,0.0456,1.0213,0.0000,0.0197,-0.0736,0.0119,-0.0020,-0.0031,1.5798,17.7997,-45.0183,
10.0300,-0.0180,0.0456,1.0213,0.0000,0.0197,-0.0736,-0.0003,-0.0026,0.0024,1.5798,17.7997,-45.0183,
10.0310,-0.0189,0.0477,1.0250,0.0000,0.0197,-0.0736,-0.0003,-0.0026,0.0024,1.5798,17.7997,-45.0183,
10.0310,-0.0191,0.0506,1.0305,0.0000,0.0197,-0.0736,-0.0003,-0.0026,0.0024,1.5798,17.7997,-45.0183,
10.0320,-0.0191,0.0506,1.0305,0.0000,0.0197,-0.0736,-0.0003,-0.0026,0.0024,1.5649,17.7615,-44.9699,
10.0510,-0.0200,0.0496,1.0277,0.0000,0.0197,-0.0736,-0.0003,-0.0026,0.0024,1.5649,17.7615,-44.9699,
10.0690,-0.0200,0.0496,1.0277,0.0000,0.0197,-0.0736,0.0073,0.0111,0.0005,1.5649,17.7615,-44.9699,
10.0700,-0.0206,0.0496,1.0221,0.0000,0.0197,-0.0736,0.0073,0.0111,0.0005,1.5649,17.7615,-44.9699,
10.0700,-0.0206,0.0496,1.0221,0.0141,-0.0359,0.0193,0.0073,0.0111,0.0005,1.5649,17.7615,-44.9699,
10.0960,-0.0206,0.0488,1.0183,0.0141,-0.0359,0.0193,0.0073,0.0111,0.0005,1.5649,17.7615,-44.9699,
10.0970,-0.0206,0.0488,1.0183,0.0141,-0.0359,0.0193,0.0073,0.0111,0.0005,1.5632,17.7435,-44.9197,
10.1180,-0.0205,0.0501,1.0168,0.0141,-0.0359,0.0193,0.0073,0.0111,0.0005,1.5632,17.7435,-44.9197,
10.1190,-0.0205,0.0501,1.0168,0.0141,-0.0359,0.0193,-0.0058,-0.0017,0.0005,1.5632,17.7435,-44.9197,
10.1270,-0.0192,0.0506,1.0208,0.0141,-0.0359,0.0193,-0.0058,-0.0017,0.0005,1.5632,17.7435,-44.9197,
10.1270,-0.0192,0.0506,1.0208,-0.0026,-0.0090,0.0143,-0.0058,-0.0017,0.0005,1.5632,17.7435,-44.9197,
10.1630,-0.0192,0.0506,1.0208,-0.0026,-0.0090,0.0143,-0.0135,-0.0060,0.0002,1.5632,17.7435,-44.9197,
10.1650,-0.0191,0.0519,1.0274,-0.0026,-0.0090,0.0143,-0.0135,-0.0060,0.0002,1.5632,17.7435,-44.9197,
10.1650,-0.0191,0.0519,1.0274,-0.0026,-0.0090,0.0143,-0.0135,-0.0060,0.0002,1.5876,17.7335,-44.9580,
10.1860,-0.0197,0.0510,1.0296,-0.0026,-0.0090,0.0143,-0.0135,-0.0060,0.0002,1.5876,17.7335,-44.9580,
10.1870,-0.0197,0.0510,1.0296,-0.0026,-0.0090,0.0143,0.0039,0.0028,-0.0001,1.5876,17.7335,-44.9580,
10.1880,-0.0177,0.0516,1.0264,-0.0026,-0.0090,0.0143,0.0039,0.0028,-0.0001,1.5876,17.7335,-44.9580,
10.2050,-0.0177,0.0516,1.0264,-0.0056,0.0014,-0.0488,0.0039,0.0028,-0.0001,1.5876,17.7335,-44.9580,
10.2060,-0.0184,0.0513,1.0229,-0.0056,0.0014,-0.0488,0.0039,0.0028,-0.0001,1.5876,17.7335,-44.9580,
10.2300,-0.0184,0.0513,1.0229,-0.0056,0.0014,-0.0488,0.0039,0.0028,-0.0001,1.5627,17.7336,-44.9203,
10.2320,-0.0186,0.0495,1.0213,-0.0056,0.0014,-0.0488,0.0039,0.0028,-0.0001,1.5627,17.7336,-44.9203,
10.2320,-0.0186,0.0495,1.0213,-0.0056,0.0014,-0.0488,0.0030,0.0053,-0.0010,1.5627,17.7336,-44.9203,
10.2520,-0.0182,0.0493,1.0233,-0.0056,0.0014,-0.0488,0.0030,0.0053,-0.0010,1.5627,17.7336,-44.9203,
10.2630,-0.0182,0.0493,1.0233,-0.0056,0.0014,-0.0488,-0.0003,0.0047,-0.0001,1.5627,17.7336,-44.9203,
10.2630,-0.0172,0.0489,1.0234,-0.0056,0.0014,-0.0488,-0.0003,0.0047,-0.0001,1.5627,17.7336,-44.9203,
10.2640,-0.0172,0.0489,1.0234,0.0078,0.0098,0.0164,-0.0003,0.0047,-0.0001,1.5627,17.7336,-44.9203,
10.2970,-0.0173,0.0491,1.0228,0.0078,0.0098,0.0164,-0.0003,0.0047,-0.0001,1.5627,17.7336,-44.9203,
10.2990,-0.0173,0.0491,1.0228,0.0078,0.0098,0.0164,-0.0003,0.0047,-0.0001,1.5021,17.7411,-44.9091,
10.3190,-0.0177,0.0482,1.0225,0.0078,0.0098,0.0164,-0.0003,0.0047,-0.0001,1.5021,17.7411,-44.9091,
10.3200,-0.0177,0.0482,1.0225,0.0078,0.0098,0.0164,0.0085,-0.0008,-0.0010,1.5021,17.7411,-44.9091,
10.3400,-0.0177,0.0482,1.0225,0.0160,-0.0126,-0.0197,0.0085,-0.0008,-0.0010,1.5021,17.7411,-44.9091,
10.3410,-0.0203,0.0478,1.0174,0.0160,-0.0126,-0.0197,0.0085,-0.0008,-0.0010,1.5021,17.7411,-44.9091,
10.3420,-0.0203,0.0500,1.0136,0.0160,-0.0126,-0.0197,0.0085,-0.0008,-0.0010,1.5021,17.7411,-44.9091,
10.3430,-0.0203,0.0500,1.0136,0.0160,-0.0126,-0.0197,0.0048,-0.0026,0.0027,1.5021,17.7411,-44.9091,
10.3640,-0.0187,0.0518,1.0180,0.0160,-0.0126,-0.0197,0.0048,-0.0026,0.0027,1.5021,17.7411,-44.9091,
10.3650,-0.0187,0.0518,1.0180,0.0160,-0.0126,-0.0197,0.0048,-0.0026,0.0027,1.4402,17.7184,-44.9255,
10.3850,-0.0209,0.0537,1.0238,0.0160,-0.0126,-0.0197,0.0048,-0.0026,0.0027,1.4402,17.7184,-44.9255,
10.3870,-0.0209,0.0537,1.0238,0.0160,-0.0126,-0.0197,-0.0113,0.0004,0.0018,1.4402,17.7184,-44.9255,
10.4000,-0.0209,0.0537,1.0238,0.0014,-0.0158,-0.0530,-0.0113,0.0004,0.0018,1.4402,17.7184,-44.9255,
10.4020,-0.0203,0.0495,1.0345,0.0014,-0.0158,-0.0530,-0.0113,0.0004,0.0018,1.4402,17.7184,-44.9255,
10.4300,-0.0167,0.0454,1.0399,0.0014,-0.0158,-0.0530,-0.0113,0.0004,0.0018,1.4402,17.7184,-44.9255,
10.4310,-0.0167,0.0454,1.0399,0.0014,-0.0158,-0.0530,0.0027,0.0056,0.0027,1.4402,17.7184,-44.9255,
10.4320,-0.0167,0.0454,1.0399,0.0014,-0.0158,-0.0530,0.0027,0.0056,0.0027,1.4566,17.7750,-45.0114,
10.4510,-0.0152,0.0454,1.0290,0.0014,-0.0158,-0.0530,0.0027,0.0056,0.0027,1.4566,17.7750,-45.0114,
10.4770,-0.0152,0.0454,1.0290,0.0014,-0.0158,-0.0530,0.0278,-0.0094,-0.0022,1.4566,17.7750,-45.0114,
10.4780,-0.0152,0.0454,1.0290,-0.0011,0.0030,0.0305,0.0278,-0.0094,-0.0022,1.4566,17.7750,-45.0114,
10.4780,-0.0184,0.0500,1.0071,-0.0011,0.0030,0.0305,0.0278,-0.0094,-0.0022,1.4566,17.7750,-45.0114,
10.4790,-0.0222,0.0504,1.0048,-0.0011,0.0030,0.0305,0.0278,-0.0094,-0.0022,1.4566,17.7750,-45.0114,
10.4980,-0.0189,0.0522,1.0103,-0.0011,0.0030,0.0305,0.0278,-0.0094,-0.0022,1.4566,17.7750,-45.0114,
10.4990,-0.0189,0.0522,1.0103,-0.0011,0.0030,0.0305,0.0278,-0.0094,-0.0022,1.4194,17.7750,-44.9613,
10.4990,-0.0189,0.0522,1.0103,-0.0011,0.0030,0.0305,-0.0318,0.0022,0.0021,1.4194,17.7750,-44.9613,
10.5170,-0.0187,0.0551,1.0189,-0.0011,0.0030,0.0305,-0.0318,0.0022,0.0021,1.4194,17.7750,-44.9613,
10.5360,-0.0189,0.0546,1.0333,-0.0011,0.0030,0.0305,-0.0318,0.0022,0.0021,1.4194,17.7750,-44.9613,
10.5370,-0.0189,0.0546,1.0333,-0.0011,0.0030,0.0305,-0.0468,0.0022,-0.0031,1.4194,17.7750,-44.9613,
10.5380,-0.0189,0.0546,1.0333,0.0102,-0.0184,-0.0607,-0.0468,0.0022,-0.0031,1.4194,17.7750,-44.9613,
10.5640,-0.0173,0.0468,1.0395,0.0102,-0.0184,-0.0607,-0.0468,0.0022,-0.0031,1.4194,17.7750,-44.9613,
10.5670,-0.0173,0.0468,1.0395,0.0102,-0.0184,-0.0607,-0.0468,0.0022,-0.0031,1.4338,17.8254,-44.9319,
10.5850,-0.0160,0.0403,1.0329,0.0102,-0.0184,-0.0607,-0.0468,0.0022,-0.0031,1.4338,17.8254,-44.9319,
10.5860,-0.0160,0.0403,1.0329,0.0102,-0.0184,-0.0607,0.0256,0.0221,0.0005,1.4338,17.8254,-44.9319,
10.6140,-0.0160,0.0403,1.0329,0.0102,-0.0184,-0.0607,0.0433,0.0291,0.0011,1.4338,17.8254,-44.9319,
10.6160,-0.0160,0.0403,1.0329,0.0090,0.0422,-0.0012,0.0433,0.0291,0.0011,1.4338,17.8254,-44.9319,
10.6170,-0.0194,0.0412,1.0218,0.0090,0.0422,-0.0012,0.0433,0.0291,0.0011,1.4338,17.8254,-44.9319,
10.6170,-0.0216,0.0486,1.0186,0.0090,0.0422,-0.0012,0.0433,0.0291,0.0011,1.4338,17.8254,-44.9319,
10.6300,-0.0216,0.0486,1.0186,0.0090,0.0422,-0.0012,0.0433,0.0291,0.0011,1.4711,17.8255,-44.9820,
10.6510,-0.0222,0.0532,1.0222,0.0090,0.0422,-0.0012,0.0433,0.0291,0.0011,1.4711,17.8255,-44.9820,
10.6740,-0.0222,0.0532,1.0222,0.0244,-0.0696,0.0267,0.0433,0.0291,0.0011,1.4711,17.8255,-44.9820,
10.6750,-0.0222,0.0532,1.0222,0.0244,-0.0696,0.0267,0.0039,0.0010,0.0033,1.4711,17.8255,-44.9820,
10.6750,-0.0205,0.0528,1.0263,0.0244,-0.0696,0.0267,0.0039,0.0010,0.0033,1.4711,17.8255,-44.9820,
10.6760,-0.0205,0.0496,1.0218,0.0244,-0.0696,0.0267,0.0039,0.0010,0.0033,1.4711,17.8255,-44.9820,
10.6970,-0.0205,0.0496,1.0218,0.0244,-0.0696,0.0267,-0.0016,-0.0146,0.0005,1.4711,17.8255,-44.9820,
10.6980,-0.0205,0.0496,1.0218,0.0244,-0.0696,0.0267,-0.0016,-0.0146,0.0005,1.3974,17.8124,-44.9854,
10.6990,-0.0209,0.0478,1.0181,0.0244,-0.0696,0.0267,-0.0016,-0.0146,0.0005,1.3974,17.8124,-44.9854,
10.7190,-0.0198,0.0485,1.0175,0.0244,-0.0696,0.0267,-0.0016,-0.0146,0.0005,1.3974,17.8124,-44.9854,
10.7510,-0.0198,0.0485,1.0175,-0.0070,0.0081,-0.0099,-0.0016,-0.0146,0.0005,1.3974,17.8124,-44.9854,
10.7530,-0.0195,0.0518,1.0181,-0.0070,0.0081,-0.0099,-0.0016,-0.0146,0.0005,1.3974,17.8124,-44.9854,
10.7540,-0.0195,0.0518,1.0181,-0.0070,0.0081,-0.0099,-0.0126,-0.0078,-0.0013,1.3974,17.8124,-44.9854,
10.7560,-0.0199,0.0544,1.0221,-0.0070,0.0081,-0.0099,-0.0126,-0.0078,-0.0013,1.3974,17.8124,-44.9854,
10.7630,-0.0199,0.0544,1.0221,-0.0070,0.0081,-0.0099,-0.0126,-0.0078,-0.0013,1.3752,17.8502,-44.9967,
10.7860,-0.0169,0.0523,1.0338,-0.0070,0.0081,-0.0099,-0.0126,-0.0078,-0.0013,1.3752,17.8502,-44.9967,
10.7870,-0.0169,0.0523,1.0338,-0.0070,0.0081,-0.0099,-0.0132,0.0032,0.0024,1.3752,17.8502,-44.9967,
10.8100,-0.0169,0.0523,1.0338,0.0029,0.0123,-0.0415,-0.0132,0.0032,0.0024,1.3752,17.8502,-44.9967,
10.8110,-0.0165,0.0465,1.0388,0.0029,0.0123,-0.0415,-0.0132,0.0032,0.0024,1.3752,17.8502,-44.9967,
10.8120,-0.0200,0.0463,1.0269,0.0029,0.0123,-0.0415,-0.0132,0.0032,0.0024,1.3752,17.8502,-44.9967,
10.8120,-0.0200,0.0463,1.0269,0.0029,0.0123,-0.0415,0.0165,0.0099,0.0005,1.3752,17.8502,-44.9967,
10.8300,-0.0216,0.0515,1.0151,0.0029,0.0123,-0.0415,0.0165,0.0099,0.0005,1.3752,17.8502,-44.9967,
10.8310,-0.0216,0.0515,1.0151,0.0029,0.0123,-0.0415,0.0165,0.0099,0.0005,1.3884,17.8703,-44.9950,
10.8510,-0.0205,0.0538,1.0175,0.0029,0.0123,-0.0415,0.0165,0.0099,0.0005,1.3884,17.8703,-44.9950,
10.8530,-0.0205,0.0538,1.0175,0.0029,0.0123,-0.0415,0.0064,-0.0042,0.0014,1.3884,17.8703,-44.9950,
10.8880,-0.0205,0.0538,1.0175,0.0191,-0.0192,0.0652,0.0064,-0.0042,0.0014,1.3884,17.8703,-44.9950,
10.8890,-0.0178,0.0527,1.0223,0.0191,-0.0192,0.0652,0.0064,-0.0042,0.0014,1.3884,17.8703,-44.9950,
10.8900,-0.0173,0.0494,1.0246,0.0191,-0.0192,0.0652,0.0064,-0.0042,0.0014,1.3884,17.8703,-44.9950,
10.8900,-0.0173,0.0494,1.0246,0.0191,-0.0192,0.0652,-0.0037,-0.0039,-0.0016,1.3884,17.8703,-44.9950,
10.8970,-0.0173,0.0494,1.0246,0.0191,-0.0192,0.0652,-0.0037,-0.0039,-0.0016,1.4355,17.8545,-44.9429,
10.9180,-0.0191,0.0465,1.0227,0.0191,-0.0192,0.0652,-0.0037,-0.0039,-0.0016,1.4355,17.8545,-44.9429,
10.9470,-0.0203,0.0457,1.0258,0.0191,-0.0192,0.0652,-0.0037,-0.0039,-0.0016,1.4355,17.8545,-44.9429,
10.9480,-0.0203,0.0457,1.0258,0.0191,-0.0192,0.0652,0.0061,0.0001,-0.0007,1.4355,17.8545,-44.9429,
10.9490,-0.0203,0.0457,1.0258,0.0097,0.0158,-0.0312,0.0061,0.0001,-0.0007,1.4355,17.8545,-44.9429,
10.9490,-0.0193,0.0477,1.0263,0.0097,0.0158,-0.0312,0.0061,0.0001,-0.0007,1.4355,17.8545,-44.9429,
10.9640,-0.0193,0.0477,1.0263,0.0097,0.0158,-0.0312,0.0061,0.0001,-0.0007,1.4685,17.7984,-44.9067,
10.9860,-0.0193,0.0477,1.0263,0.0097,0.0158,-0.0312,0.0088,-0.0039,0.0014,1.4685,17.7984,-44.9067,
10.9870,-0.0191,0.0506,1.0245,0.0097,0.0158,-0.0312,0.0088,-0.0039,0.0014,1.4685,17.7984,-44.9067,
10.9870,-0.0206,0.0508,1.0217,0.0097,0.0158,-0.0312,0.0088,-0.0039,0.0014,1.4685,17.7984,-44.9067,
11.0250,-0.0205,0.0494,1.0219,0.0097,0.0158,-0.0312,0.0088,-0.0039,0.0014,1.4685,17.7984,-44.9067,
11.0260,-0.0205,0.0494,1.0219,0.0036,-0.0343,0.0114,0.0088,-0.0039,0.0014,1.4685,17.7984,-44.9067,
11.0270,-0.0206,0.0485,1.0214,0.0036,-0.0343,0.0114,0.0088,-0.0039,0.0014,1.4685,17.7984,-44.9067,
11.0270,-0.0206,0.0485,1.0214,0.0036,-0.0343,0.0114,0.0012,0.0044,0.0002,1.4685,17.7984,-44.9067,
11.0300,-0.0206,0.0485,1.0214,0.0036,-0.0343,0.0114,0.0012,0.0044,0.0002,1.5537,17.7806,-44.9691,
11.0520,-0.0200,0.0488,1.0232,0.0036,-0.0343,0.0114,0.0012,0.0044,0.0002,1.5537,17.7806,-44.9691,
11.0530,-0.0200,0.0488,1.0232,0.0036,-0.0343,0.0114,-0.0080,-0.0005,0.0002,1.5537,17.7806,-44.9691,
11.0840,-0.0187,0.0505,1.0221,0.0036,-0.0343,0.0114,-0.0080,-0.0005,0.0002,1.5537,17.7806,-44.9691,
11.0860,-0.0187,0.0505,1.0221,0.0036,-0.0343,0.0114,-0.0058,-0.0078,0.0002,1.5537,17.7806,-44.9691,
11.0860,-0.0197,0.0513,1.0218,0.0036,-0.0343,0.0114,-0.0058,-0.0078,0.0002,1.5537,17.7806,-44.9691,
11.0860,-0.0197,0.0513,1.0218,-0.0053,-0.0053,-0.0153,-0.0058,-0.0078,0.0002,1.5537,17.7806,-44.9691,
11.0970,-0.0197,0.0513,1.0218,-0.0053,-0.0053,-0.0153,-0.0058,-0.0078,0.0002,1.6156,17.7809,-45.0439,
11.1180,-0.0198,0.0522,1.0239,-0.0053,-0.0053,-0.0153,-0.0058,-0.0078,0.0002,1.6156,17.7809,-45.0439,
11.1610,-0.0193,0.0517,1.0280,-0.0053,-0.0053,-0.0153,-0.0058,-0.0078,0.0002,1.6156,17.7809,-45.0439,
11.1620,-0.0193,0.0517,1.0280,-0.0053,-0.0053,-0.0153,-0.0058,-0.0002,0.0014,1.6156,17.7809,-45.0439,
11.1630,-0.0193,0.0517,1.0280,-0.0053,-0.0053,-0.0153,0.0061,0.0077,-0.0004,1.6156,17.7809,-45.0439,
11.1630,-0.0191,0.0500,1.0293,-0.0053,-0.0053,-0.0153,0.0061,0.0077,-0.0004,1.6156,17.7809,-45.0439,
11.1630,-0.0183,0.0484,1.0268,-0.0053,-0.0053,-0.0153,0.0061,0.0077,-0.0004,1.6156,17.7809,-45.0439,
11.1640,-0.0183,0.0484,1.0268,0.0006,0.0061,-0.0114,0.0061,0.0077,-0.0004,1.6156,17.7809,-45.0439,
11.1650,-0.0183,0.0484,1.0268,0.0006,0.0061,-0.0114,0.0061,0.0077,-0.0004,1.6639,17.7732,-45.0427,
11.1860,-0.0189,0.0486,1.0245,0.0006,0.0061,-0.0114,0.0061,0.0077,-0.0004,1.6639,17.7732,-45.0427,
11.2200,-0.0177,0.0496,1.0225,0.0006,0.0061,-0.0114,0.0061,0.0077,-0.0004,1.6639,17.7732,-45.0427,
11.2210,-0.0177,0.0496,1.0225,0.0084,-0.0005,0.0370,0.0061,0.0077,-0.0004,1.6639,17.7732,-45.0427,
11.2210,-0.0177,0.0496,1.0225,0.0084,-0.0005,0.0370,0.0088,0.0010,0.0002,1.6639,17.7732,-45.0427,
11.2220,-0.0175,0.0485,1.0238,0.0084,-0.0005,0.0370,0.0088,0.0010,0.0002,1.6639,17.7732,-45.0427,
11.2310,-0.0175,0.0485,1.0238,0.0084,-0.0005,0.0370,0.0088,0.0010,0.0002,1.7767,17.8260,-45.0740,
11.2520,-0.0184,0.0485,1.0250,0.0084,-0.0005,0.0370,0.0088,0.0010,0.0002,1.7767,17.8260,-45.0740,
11.2530,-0.0184,0.0485,1.0250,0.0084,-0.0005,0.0370,0.0064,-0.0023,-0.0001,1.7767,17.8260,-45.0740,
11.2990,-0.0184,0.0485,1.0250,0.0084,-0.0005,0.0370,0.0064,-0.0023,-0.0001,1.8619,17.8302,-45.0579,
11.3020,-0.0200,0.0477,1.0232,0.0084,-0.0005,0.0370,0.0064,-0.0023,-0.0001,1.8619,17.8302,-45.0579,
11.3020,-0.0200,0.0477,1.0232,0.0084,-0.0005,0.0370,0.0039,-0.0033,0.0014,1.8619,17.8302,-45.0579,
11.3030,-0.0221,0.0497,1.0178,0.0084,-0.0005,0.0370,0.0039,-0.0033,0.0014,1.8619,17.8302,-45.0579,
11.3030,-0.0197,0.0516,1.0164,0.0084,-0.0005,0.0370,0.0039,-0.0033,0.0014,1.8619,17.8302,-45.0579,
11.3030,-0.0197,0.0516,1.0164,0.0146,-0.0169,-0.0007,0.0039,-0.0033,0.0014,1.8619,17.8302,-45.0579,
11.3190,-0.0200,0.0538,1.0212,0.0146,-0.0169,-0.0007,0.0039,-0.0033,0.0014,1.8619,17.8302,-45.0579,
11.3210,-0.0200,0.0538,1.0212,0.0146,-0.0169,-0.0007,-0.0123,-0.0057,0.0014,1.8619,17.8302,-45.0579,
11.3560,-0.0200,0.0507,1.0357,0.0146,-0.0169,-0.0007,-0.0123,-0.0057,0.0014,1.8619,17.8302,-45.0579,
11.3570,-0.0200,0.0507,1.0357,0.0146,-0.0169,-0.0007,0.0009,0.0016,0.0024,1.8619,17.8302,-45.0579,
11.3580,-0.0175,0.0456,1.0446,0.0146,-0.0169,-0.0007,0.0009,0.0016,0.0024,1.8619,17.8302,-45.0579,
11.3580,-0.0175,0.0456,1.0446,-0.0096,-0.0058,-0.0346,0.0009,0.0016,0.0024,1.8619,17.8302,-45.0579,
11.3630,-0.0175,0.0456,1.0446,-0.0096,-0.0058,-0.0346,0.0009,0.0016,0.0024,1.8499,17.8293,-45.0713,
11.3850,-0.0137,0.0444,1.0327,-0.0096,-0.0058,-0.0346,0.0009,0.0016,0.0024,1.8499,17.8293,-45.0713,
11.4310,-0.0163,0.0497,1.0093,-0.0096,-0.0058,-0.0346,0.0009,0.0016,0.0024,1.8499,17.8293,-45.0713,
11.4330,-0.0214,0.0522,1.0026,-0.0096,-0.0058,-0.0346,0.0009,0.0016,0.0024,1.8499,17.8293,-45.0713,
11.4340,-0.0214,0.0522,1.0026,-0.0096,-0.0058,-0.0346,0.0375,-0.0081,-0.0034,1.8499,17.8293,-45.0713,
11.4350,-0.0214,0.0522,1.0026,-0.0096,-0.0058,-0.0346,0.0375,-0.0081,-0.0034,1.8022,17.8243,-45.1632,
11.4350,-0.0189,0.0541,1.0063,-0.0096,-0.0058,-0.0346,0.0375,-0.0081,-0.0034,1.8022,17.8243,-45.1632,
11.4360,-0.0189,0.0541,1.0063,-0.0096,-0.0058,-0.0346,-0.0291,-0.0005,0.0014,1.8022,17.8243,-45.1632,
11.4370,-0.0189,0.0541,1.0063,0.0069,-0.0195,0.0959,-0.0291,-0.0005,0.0014,1.8022,17.8243,-45.1632,
11.4940,-0.0189,0.0541,1.0063,0.0073,0.0192,-0.1358,-0.0291,-0.0005,0.0014,1.8022,17.8243,-45.1632,
11.4970,-0.0189,0.0541,1.0063,0.0073,0.0192,-0.1358,-0.0639,-0.0017,-0.0025,1.8022,17.8243,-45.1632,
11.4970,-0.0186,0.0555,1.0168,0.0073,0.0192,-0.1358,-0.0639,-0.0017,-0.0025,1.8022,17.8243,-45.1632,
