
time,gFx,gFy,gFz,ax,ay,az,wx,wy,wz,Bx,By,Bz,
0.0460,-0.0054,-0.1977,1.0173,0.0000,0.0000,0.0000,0.0000,0.0000,0.0000,0.0000,0.0000,0.0000,
0.0460,-0.0054,-0.1977,1.0173,0.0000,0.0000,0.0000,-0.0026,-0.0108,-0.0030,0.0000,0.0000,0.0000,
0.0630,-0.0066,-0.2024,1.0228,0.0000,0.0000,0.0000,-0.0026,-0.0108,-0.0030,0.0000,0.0000,0.0000,
0.1100,-0.0072,-0.1970,0.9973,0.0000,0.0000,0.0000,-0.0026,-0.0108,-0.0030,0.0000,0.0000,0.0000,
0.1110,-0.0077,-0.1925,1.0060,0.0000,0.0000,0.0000,-0.0026,-0.0108,-0.0030,0.0000,0.0000,0.0000,
0.1120,-0.0054,-0.1915,1.0082,0.0000,0.0000,0.0000,-0.0026,-0.0108,-0.0030,0.0000,0.0000,0.0000,
0.1130,-0.0054,-0.1915,1.0082,0.0000,0.0000,0.0000,0.0230,-0.0059,-0.0006,0.0000,0.0000,0.0000,
0.1140,-0.0054,-0.1915,1.0082,0.0000,0.0000,0.0000,0.0129,-0.0034,0.0003,0.0000,0.0000,0.0000,
0.1170,-0.0054,-0.1915,1.0082,0.0000,0.0000,0.0000,0.0129,-0.0034,0.0003,1.3094,28.8477,-38.8229,
0.1660,-0.0060,-0.1900,1.0068,0.0000,0.0000,0.0000,0.0129,-0.0034,0.0003,1.3094,28.8477,-38.8229,
0.1670,-0.0060,-0.1900,1.0068,0.0000,0.0000,0.0000,0.0227,-0.0093,-0.0018,1.3094,28.8477,-38.8229,
0.1680,-0.0066,-0.1883,1.0096,0.0000,0.0000,0.0000,0.0227,-0.0093,-0.0018,1.3094,28.8477,-38.8229,
0.1680,-0.0081,-0.1873,1.0120,0.0000,0.0000,0.0000,0.0227,-0.0093,-0.0018,1.3094,28.8477,-38.8229,
0.1690,-0.0081,-0.1873,1.0120,0.0000,0.0000,0.0000,0.0227,-0.0093,-0.0018,1.3094,28.8477,-38.8229,
0.1960,-0.0087,-0.1869,1.0159,0.0000,0.0000,0.0000,0.0227,-0.0093,-0.0018,1.3094,28.8477,-38.8229,
0.1980,-0.0087,-0.1869,1.0159,0.0000,0.0000,0.0000,0.0209,-0.0151,0.0000,1.3094,28.8477,-38.8229,
0.1980,-0.0087,-0.1869,1.0159,0.0000,0.0000,0.0000,0.0209,-0.0151,0.0000,1.4909,28.9563,-38.8759,
0.2310,-0.0093,-0.1836,1.0093,0.0000,0.0000,0.0000,0.0209,-0.0151,0.0000,1.4909,28.9563,-38.8759,
0.2320,-0.0093,-0.1836,1.0093,0.0000,0.0000,0.0000,0.0074,-0.0184,0.0006,1.4909,28.9563,-38.8759,
0.2340,-0.0099,-0.1845,0.9985,0.0000,0.0000,0.0000,0.0074,-0.0184,0.0006,1.4909,28.9563,-38.8759,
0.2460,-0.0082,-0.1902,1.0142,0.0000,0.0000,0.0000,0.0074,-0.0184,0.0006,1.4909,28.9563,-38.8759,
0.2470,-0.0082,-0.1902,1.0142,-0.0077,0.0296,0.0237,0.0074,-0.0184,0.0006,1.4909,28.9563,-38.8759,
0.2560,-0.0082,-0.1902,1.0142,-0.0077,0.0296,0.0237,0.0074,-0.0184,0.0006,1.5991,28.9392,-38.8749,
0.3030,-0.0082,-0.1902,1.0142,-0.0181,0.0266,0.0028,0.0074,-0.0184,0.0006,1.5991,28.9392,-38.8749,
0.3040,-0.0079,-0.1919,1.0123,-0.0181,0.0266,0.0028,0.0074,-0.0184,0.0006,1.5991,28.9392,-38.8749,
0.3040,-0.0079,-0.1919,1.0123,-0.0181,0.0266,0.0028,0.0056,-0.0080,0.0021,1.5991,28.9392,-38.8749,
0.3050,-0.0078,-0.1894,1.0021,-0.0181,0.0266,0.0028,0.0056,-0.0080,0.0021,1.5991,28.9392,-38.8749,
0.3060,-0.0078,-0.1894,1.0021,-0.0181,0.0266,0.0028,0.0166,-0.0016,0.0052,1.5991,28.9392,-38.8749,
0.3060,-0.0084,-0.1870,1.0091,-0.0181,0.0266,0.0028,0.0166,-0.0016,0.0052,1.5991,28.9392,-38.8749,
0.3150,-0.0084,-0.1870,1.0091,-0.0181,0.0266,0.0028,0.0166,-0.0016,0.0052,1.6731,28.9494,-38.9340,
0.3770,-0.0068,-0.1865,1.0086,-0.0181,0.0266,0.0028,0.0166,-0.0016,0.0052,1.6731,28.9494,-38.9340,
0.3790,-0.0068,-0.1865,1.0086,-0.0181,0.0266,0.0028,0.0093,-0.0120,0.0025,1.6731,28.9494,-38.9340,
0.3790,-0.0062,-0.1866,1.0097,-0.0181,0.0266,0.0028,0.0093,-0.0120,0.0025,1.6731,28.9494,-38.9340,
0.3800,-0.0049,-0.1889,1.0118,-0.0181,0.0266,0.0028,0.0093,-0.0120,0.0025,1.6731,28.9494,-38.9340,
0.3810,-0.0042,-0.1912,1.0111,-0.0181,0.0266,0.0028,0.0093,-0.0120,0.0025,1.6731,28.9494,-38.9340,
0.3820,-0.0042,-0.1912,1.0111,-0.0181,0.0266,0.0028,0.0084,-0.0172,-0.0009,1.6731,28.9494,-38.9340,
0.3820,-0.0042,-0.1912,1.0111,-0.0142,-0.0056,-0.0019,0.0084,-0.0172,-0.0009,1.6731,28.9494,-38.9340,
0.3950,-0.0042,-0.1912,1.0111,-0.0142,-0.0056,-0.0019,0.0084,-0.0172,-0.0009,1.6328,28.9014,-38.9510,
0.4400,-0.0039,-0.1916,1.0103,-0.0142,-0.0056,-0.0019,0.0084,-0.0172,-0.0009,1.6328,28.9014,-38.9510,
0.4410,-0.0039,-0.1916,1.0103,0.0049,-0.0095,0.0135,0.0084,-0.0172,-0.0009,1.6328,28.9014,-38.9510,
0.4420,-0.0026,-0.1891,1.0118,0.0049,-0.0095,0.0135,0.0084,-0.0172,-0.0009,1.6328,28.9014,-38.9510,
0.4420,-0.0035,-0.1865,1.0100,0.0049,-0.0095,0.0135,0.0084,-0.0172,-0.0009,1.6328,28.9014,-38.9510,
0.4430,-0.0035,-0.1865,1.0100,0.0049,-0.0095,0.0135,0.0151,-0.0105,0.0018,1.6328,28.9014,-38.9510,
0.4560,-0.0035,-0.1865,1.0100,0.0049,-0.0095,0.0135,0.0151,-0.0105,0.0018,1.6286,28.8897,-38.9601,
0.5110,-0.0035,-0.1865,1.0100,0.0049,-0.0095,0.0135,0.0181,-0.0099,0.0000,1.6286,28.8897,-38.9601,
0.5120,-0.0037,-0.1843,1.0059,0.0049,-0.0095,0.0135,0.0181,-0.0099,0.0000,1.6286,28.8897,-38.9601,
0.5120,-0.0049,-0.1848,1.0040,0.0049,-0.0095,0.0135,0.0181,-0.0099,0.0000,1.6286,28.8897,-38.9601,
0.5130,-0.0053,-0.1837,1.0096,0.0049,-0.0095,0.0135,0.0181,-0.0099,0.0000,1.6286,28.8897,-38.9601,
0.5140,-0.0053,-0.1837,1.0096,0.0049,-0.0095,0.0135,0.0053,-0.0108,-0.0012,1.6286,28.8897,-38.9601,
0.5170,-0.0053,-0.1837,1.0096,0.0049,-0.0095,0.0135,0.0053,-0.0108,-0.0012,1.6126,28.8798,-38.9583,
0.5180,-0.0056,-0.1845,1.0124,0.0049,-0.0095,0.0135,0.0053,-0.0108,-0.0012,1.6126,28.8798,-38.9583,
0.5180,-0.0056,-0.1845,1.0124,0.0124,-0.0095,0.0096,0.0053,-0.0108,-0.0012,1.6126,28.8798,-38.9583,
0.5770,-0.0049,-0.1838,1.0129,0.0124,-0.0095,0.0096,0.0053,-0.0108,-0.0012,1.6126,28.8798,-38.9583,
0.5790,-0.0049,-0.1838,1.0129,0.0124,-0.0095,0.0096,0.0062,-0.0126,0.0018,1.6126,28.8798,-38.9583,
0.5800,-0.0049,-0.1838,1.0129,-0.0082,0.0211,-0.0102,0.0062,-0.0126,0.0018,1.6126,28.8798,-38.9583,
0.5800,-0.0049,-0.1838,1.0129,-0.0082,0.0211,-0.0102,0.0041,-0.0111,0.0049,1.6126,28.8798,-38.9583,
0.5810,-0.0053,-0.1851,1.0131,-0.0082,0.0211,-0.0102,0.0041,-0.0111,0.0049,1.6126,28.8798,-38.9583,
0.5810,-0.0034,-0.1876,1.0123,-0.0082,0.0211,-0.0102,0.0041,-0.0111,0.0049,1.6126,28.8798,-38.9583,
0.5950,-0.0034,-0.1876,1.0123,-0.0082,0.0211,-0.0102,0.0041,-0.0111,0.0049,1.5839,28.8678,-38.9813,
0.5970,-0.0024,-0.1883,1.0078,-0.0082,0.0211,-0.0102,0.0041,-0.0111,0.0049,1.5839,28.8678,-38.9813,
0.6450,0.0001,-0.1877,1.0097,-0.0082,0.0211,-0.0102,0.0041,-0.0111,0.0049,1.5839,28.8678,-38.9813,
0.6470,-0.0018,-0.1848,1.0100,-0.0082,0.0211,-0.0102,0.0041,-0.0111,0.0049,1.5839,28.8678,-38.9813,
0.6470,-0.0018,-0.1848,1.0100,-0.0082,0.0211,-0.0102,0.0029,-0.0089,0.0067,1.5839,28.8678,-38.9813,
0.6540,-0.0031,-0.1818,1.0059,-0.0082,0.0211,-0.0102,0.0029,-0.0089,0.0067,1.5839,28.8678,-38.9813,
0.6550,-0.0031,-0.1818,1.0059,-0.0082,0.0211,-0.0102,0.0062,-0.0093,0.0021,1.5839,28.8678,-38.9813,
0.6560,-0.0031,-0.1818,1.0059,-0.0070,0.0037,0.0256,0.0062,-0.0093,0.0021,1.5839,28.8678,-38.9813,
0.6580,-0.0031,-0.1818,1.0059,-0.0070,0.0037,0.0256,0.0062,-0.0093,0.0021,1.6306,28.8656,-39.0101,
0.7110,-0.0031,-0.1818,1.0059,-0.0070,0.0037,0.0256,0.0026,-0.0147,0.0006,1.6306,28.8656,-39.0101,
0.7120,-0.0038,-0.1806,1.0052,-0.0070,0.0037,0.0256,0.0026,-0.0147,0.0006,1.6306,28.8656,-39.0101,
0.7120,-0.0064,-0.1839,1.0101,-0.0070,0.0037,0.0256,0.0026,-0.0147,0.0006,1.6306,28.8656,-39.0101,
0.7130,-0.0039,-0.1860,1.0107,-0.0070,0.0037,0.0256,0.0026,-0.0147,0.0006,1.6306,28.8656,-39.0101,
0.7140,-0.0039,-0.1860,1.0107,0.0119,0.0041,-0.0113,0.0026,-0.0147,0.0006,1.6306,28.8656,-39.0101,
0.7170,-0.0039,-0.1860,1.0107,0.0119,0.0041,-0.0113,0.0026,-0.0147,0.0006,1.6279,28.8345,-39.0225,
0.7770,-0.0039,-0.1860,1.0107,0.0119,0.0041,-0.0113,0.0093,-0.0056,0.0055,1.6279,28.8345,-39.0225,
0.7780,-0.0040,-0.1834,1.0247,0.0119,0.0041,-0.0113,0.0093,-0.0056,0.0055,1.6279,28.8345,-39.0225,
0.7780,-0.0084,-0.1781,1.0098,0.0119,0.0041,-0.0113,0.0093,-0.0056,0.0055,1.6279,28.8345,-39.0225,
0.7790,-0.0089,-0.1781,0.9984,0.0119,0.0041,-0.0113,0.0093,-0.0056,0.0055,1.6279,28.8345,-39.0225,
0.7790,-0.0089,-0.1781,0.9984,0.0119,0.0041,-0.0113,-0.0103,-0.0202,0.0061,1.6279,28.8345,-39.0225,
0.7900,-0.0089,-0.1781,0.9984,-0.0225,0.0238,0.0115,-0.0103,-0.0202,0.0061,1.6279,28.8345,-39.0225,
0.7910,-0.0005,-0.1859,1.0078,-0.0225,0.0238,0.0115,-0.0103,-0.0202,0.0061,1.6279,28.8345,-39.0225,
0.7950,-0.0005,-0.1859,1.0078,-0.0225,0.0238,0.0115,-0.0103,-0.0202,0.0061,1.5978,28.8136,-39.0404,
0.8440,-0.0005,-0.1859,1.0078,-0.0225,0.0238,0.0115,0.0047,-0.0038,0.0049,1.5978,28.8136,-39.0404,
0.8450,-0.0033,-0.1899,1.0291,-0.0225,0.0238,0.0115,0.0047,-0.0038,0.0049,1.5978,28.8136,-39.0404,
0.8460,0.0017,-0.1862,0.9981,-0.0225,0.0238,0.0115,0.0047,-0.0038,0.0049,1.5978,28.8136,-39.0404,
0.8510,-0.0033,-0.1891,1.0106,-0.0225,0.0238,0.0115,0.0047,-0.0038,0.0049,1.5978,28.8136,-39.0404,
0.8520,-0.0033,-0.1891,1.0106,-0.0225,0.0238,0.0115,0.0032,-0.0175,0.0092,1.5978,28.8136,-39.0404,
0.8520,-0.0033,-0.1891,1.0106,-0.0361,0.0365,-0.0116,0.0032,-0.0175,0.0092,1.5978,28.8136,-39.0404,
0.8550,-0.0033,-0.1891,1.0106,-0.0361,0.0365,-0.0116,0.0032,-0.0175,0.0092,1.5198,28.7784,-39.0300,
0.9120,-0.0043,-0.1873,1.0280,-0.0361,0.0365,-0.0116,0.0032,-0.0175,0.0092,1.5198,28.7784,-39.0300,
0.9140,-0.0043,-0.1873,1.0280,-0.0361,0.0365,-0.0116,0.0435,0.0011,0.0110,1.5198,28.7784,-39.0300,
0.9150,-0.0050,-0.1811,1.0086,-0.0361,0.0365,-0.0116,0.0435,0.0011,0.0110,1.5198,28.7784,-39.0300,
0.9160,-0.0038,-0.1789,0.9997,-0.0361,0.0365,-0.0116,0.0435,0.0011,0.0110,1.5198,28.7784,-39.0300,
0.9190,-0.0038,-0.1789,0.9997,-0.0361,0.0365,-0.0116,0.0435,0.0011,0.0110,1.4791,28.7753,-39.0664,
0.9270,-0.0015,-0.1850,1.0152,-0.0361,0.0365,-0.0116,0.0435,0.0011,0.0110,1.4791,28.7753,-39.0664,
0.9280,-0.0015,-0.1850,1.0152,-0.0361,0.0365,-0.0116,-0.0191,-0.0041,0.0064,1.4791,28.7753,-39.0664,
0.9280,-0.0015,-0.1850,1.0152,0.0008,-0.0386,0.0449,-0.0191,-0.0041,0.0064,1.4791,28.7753,-39.0664,
0.9780,-0.0007,-0.1894,1.0144,0.0008,-0.0386,0.0449,-0.0191,-0.0041,0.0064,1.4791,28.7753,-39.0664,
0.9790,-0.0011,-0.1875,1.0057,0.0008,-0.0386,0.0449,-0.0191,-0.0041,0.0064,1.4791,28.7753,-39.0664,
0.9800,-0.0011,-0.1875,1.0057,0.0008,-0.0386,0.0449,0.0087,-0.0013,0.0028,1.4791,28.7753,-39.0664,
0.9860,-0.0038,-0.1838,1.0089,0.0008,-0.0386,0.0449,0.0087,-0.0013,0.0028,1.4791,28.7753,-39.0664,
0.9870,-0.0038,-0.1838,1.0089,-0.0143,0.0132,0.0031,0.0087,-0.0013,0.0028,1.4791,28.7753,-39.0664,
0.9960,-0.0038,-0.1838,1.0089,-0.0143,0.0132,0.0031,0.0087,-0.0013,0.0028,1.4593,28.7582,-39.0718,
1.0450,-0.0027,-0.1834,1.0071,-0.0143,0.0132,0.0031,0.0087,-0.0013,0.0028,1.4593,28.7582,-39.0718,
1.0460,-0.0018,-0.1827,1.0075,-0.0143,0.0132,0.0031,0.0087,-0.0013,0.0028,1.4593,28.7582,-39.0718,
1.0470,-0.0007,-0.1816,1.0139,-0.0143,0.0132,0.0031,0.0087,-0.0013,0.0028,1.4593,28.7582,-39.0718,
1.0470,-0.0007,-0.1816,1.0139,-0.0143,0.0132,0.0031,0.0163,0.0008,-0.0009,1.4593,28.7582,-39.0718,
1.0480,-0.0007,-0.1816,1.0139,-0.0143,0.0132,0.0031,0.0191,-0.0007,0.0003,1.4593,28.7582,-39.0718,
1.0550,-0.0007,-0.1816,1.0139,-0.0143,0.0132,0.0031,0.0191,-0.0007,0.0003,1.4725,28.7286,-39.1019,
1.0650,-0.0007,-0.1816,1.0139,0.0018,-0.0374,-0.0116,0.0191,-0.0007,0.0003,1.4725,28.7286,-39.1019,
1.0660,-0.0006,-0.1804,1.0123,0.0018,-0.0374,-0.0116,0.0191,-0.0007,0.0003,1.4725,28.7286,-39.1019,
1.1110,-0.0050,-0.1783,1.0131,0.0018,-0.0374,-0.0116,0.0191,-0.0007,0.0003,1.4725,28.7286,-39.1019,
1.1120,-0.0066,-0.1770,1.0114,0.0018,-0.0374,-0.0116,0.0191,-0.0007,0.0003,1.4725,28.7286,-39.1019,
1.1130,-0.0066,-0.1770,1.0114,0.0018,-0.0374,-0.0116,0.0233,-0.0041,0.0031,1.4725,28.7286,-39.1019,
1.1180,-0.0066,-0.1770,1.0114,0.0018,-0.0374,-0.0116,0.0233,-0.0041,0.0031,1.5068,28.7183,-39.1039,
1.1230,-0.0060,-0.1785,1.0035,0.0018,-0.0374,-0.0116,0.0233,-0.0041,0.0031,1.5068,28.7183,-39.1039,
1.1240,-0.0060,-0.1785,1.0035,0.0018,-0.0374,-0.0116,0.0123,-0.0120,0.0028,1.5068,28.7183,-39.1039,
1.1260,-0.0060,-0.1785,1.0035,-0.0002,0.0001,-0.0008,0.0123,-0.0120,0.0028,1.5068,28.7183,-39.1039,
1.1780,-0.0060,-0.1785,1.0035,-0.0002,0.0001,-0.0008,-0.0008,-0.0111,0.0012,1.5068,28.7183,-39.1039,
1.1780,-0.0031,-0.1807,1.0076,-0.0002,0.0001,-0.0008,-0.0008,-0.0111,0.0012,1.5068,28.7183,-39.1039,
1.1790,-0.0028,-0.1833,1.0108,-0.0002,0.0001,-0.0008,-0.0008,-0.0111,0.0012,1.5068,28.7183,-39.1039,
1.1950,-0.0028,-0.1833,1.0108,-0.0002,0.0001,-0.0008,-0.0008,-0.0111,0.0012,1.4975,28.6861,-39.1222,
1.1970,-0.0020,-0.1803,1.0069,-0.0002,0.0001,-0.0008,-0.0008,-0.0111,0.0012,1.4975,28.6861,-39.1222,
1.2010,-0.0020,-0.1803,1.0069,-0.0414,0.0256,-0.0175,-0.0008,-0.0111,0.0012,1.4975,28.6861,-39.1222,
1.2020,-0.0006,-0.1796,1.0096,-0.0414,0.0256,-0.0175,-0.0008,-0.0111,0.0012,1.4975,28.6861,-39.1222,
1.2040,-0.0006,-0.1796,1.0096,-0.0414,0.0256,-0.0175,0.0154,-0.0083,-0.0018,1.4975,28.6861,-39.1222,
1.2300,-0.0007,-0.1788,1.0084,-0.0414,0.0256,-0.0175,0.0154,-0.0083,-0.0018,1.4975,28.6861,-39.1222,
1.2450,-0.0037,-0.1789,1.0106,-0.0414,0.0256,-0.0175,0.0154,-0.0083,-0.0018,1.4975,28.6861,-39.1222,
1.2460,-0.0037,-0.1789,1.0106,-0.0414,0.0256,-0.0175,0.0093,-0.0053,-0.0015,1.4975,28.6861,-39.1222,
1.2560,-0.0037,-0.1789,1.0106,-0.0414,0.0256,-0.0175,0.0093,-0.0053,-0.0015,1.4516,28.6540,-39.1165,
1.2600,-0.0045,-0.1809,1.0125,-0.0414,0.0256,-0.0175,0.0093,-0.0053,-0.0015,1.4516,28.6540,-39.1165,
1.2610,-0.0045,-0.1809,1.0125,-0.0082,-0.0083,-0.0125,0.0093,-0.0053,-0.0015,1.4516,28.6540,-39.1165,
1.3110,-0.0062,-0.1826,1.0107,-0.0082,-0.0083,-0.0125,0.0093,-0.0053,-0.0015,1.4516,28.6540,-39.1165,
1.3120,-0.0065,-0.1834,1.0128,-0.0082,-0.0083,-0.0125,0.0093,-0.0053,-0.0015,1.4516,28.6540,-39.1165,
1.3130,-0.0065,-0.1834,1.0128,-0.0082,-0.0083,-0.0125,0.0078,-0.0041,0.0046,1.4516,28.6540,-39.1165,
1.3160,-0.0065,-0.1834,1.0128,-0.0082,-0.0083,-0.0125,0.0078,-0.0041,0.0046,1.4124,28.6096,-39.1280,
1.3370,-0.0065,-0.1834,1.0128,-0.0082,-0.0083,-0.0125,0.0102,-0.0056,0.0040,1.4124,28.6096,-39.1280,
1.3390,-0.0065,-0.1834,1.0101,-0.0082,-0.0083,-0.0125,0.0102,-0.0056,0.0040,1.4124,28.6096,-39.1280,
1.3400,-0.0068,-0.1810,1.0062,-0.0082,-0.0083,-0.0125,0.0102,-0.0056,0.0040,1.4124,28.6096,-39.1280,
1.3400,-0.0068,-0.1810,1.0062,-0.0245,-0.0036,-0.0023,0.0102,-0.0056,0.0040,1.4124,28.6096,-39.1280,
1.3780,-0.0057,-0.1777,1.0050,-0.0245,-0.0036,-0.0023,0.0102,-0.0056,0.0040,1.4124,28.6096,-39.1280,
1.3790,-0.0034,-0.1770,1.0067,-0.0245,-0.0036,-0.0023,0.0102,-0.0056,0.0040,1.4124,28.6096,-39.1280,
1.3800,-0.0034,-0.1770,1.0067,-0.0245,-0.0036,-0.0023,0.0157,-0.0086,0.0012,1.4124,28.6096,-39.1280,
1.3960,-0.0039,-0.1773,1.0084,-0.0245,-0.0036,-0.0023,0.0157,-0.0086,0.0012,1.4124,28.6096,-39.1280,
1.3970,-0.0039,-0.1773,1.0084,-0.0245,-0.0036,-0.0023,0.0148,-0.0083,-0.0018,1.4124,28.6096,-39.1280,
1.3970,-0.0039,-0.1773,1.0084,-0.0529,-0.0358,-0.0073,0.0148,-0.0083,-0.0018,1.4124,28.6096,-39.1280,
1.3980,-0.0039,-0.1773,1.0084,-0.0529,-0.0358,-0.0073,0.0148,-0.0083,-0.0018,1.4081,28.5813,-39.1376,
1.4450,-0.0039,-0.1773,1.0084,-0.0529,-0.0358,-0.0073,0.0178,-0.0050,-0.0037,1.4081,28.5813,-39.1376,
1.4460,-0.0027,-0.1771,1.0104,-0.0529,-0.0358,-0.0073,0.0178,-0.0050,-0.0037,1.4081,28.5813,-39.1376,
1.4470,-0.0027,-0.1766,1.0111,-0.0529,-0.0358,-0.0073,0.0178,-0.0050,-0.0037,1.4081,28.5813,-39.1376,
1.4560,-0.0011,-0.1755,1.0128,-0.0529,-0.0358,-0.0073,0.0178,-0.0050,-0.0037,1.4081,28.5813,-39.1376,
1.4570,-0.0011,-0.1755,1.0128,-0.0529,-0.0358,-0.0073,0.0178,-0.0050,-0.0037,1.4774,28.5432,-39.1250,
1.4740,-0.0011,-0.1755,1.0128,-0.0529,-0.0358,-0.0073,0.0212,-0.0047,-0.0021,1.4774,28.5432,-39.1250,
1.4740,-0.0006,-0.1749,1.0140,-0.0529,-0.0358,-0.0073,0.0212,-0.0047,-0.0021,1.4774,28.5432,-39.1250,
1.4750,-0.0006,-0.1749,1.0140,-0.0293,0.0027,-0.0336,0.0212,-0.0047,-0.0021,1.4774,28.5432,-39.1250,
1.5110,-0.0011,-0.1737,1.0126,-0.0293,0.0027,-0.0336,0.0212,-0.0047,-0.0021,1.4774,28.5432,-39.1250,
1.5180,-0.0007,-0.1735,1.0102,-0.0293,0.0027,-0.0336,0.0212,-0.0047,-0.0021,1.4774,28.5432,-39.1250,
1.5190,-0.0007,-0.1735,1.0102,-0.0293,0.0027,-0.0336,0.0273,-0.0034,-0.0006,1.4774,28.5432,-39.1250,
1.5200,-0.0007,-0.1735,1.0102,-0.0293,0.0027,-0.0336,0.0273,-0.0034,-0.0006,1.4782,28.5028,-39.1482,
1.5340,-0.0007,-0.1735,1.0102,-0.0061,0.0011,0.0139,0.0273,-0.0034,-0.0006,1.4782,28.5028,-39.1482,
1.5350,0.0007,-0.1732,1.0091,-0.0061,0.0011,0.0139,0.0273,-0.0034,-0.0006,1.4782,28.5028,-39.1482,
1.5780,-0.0004,-0.1730,1.0078,-0.0061,0.0011,0.0139,0.0273,-0.0034,-0.0006,1.4782,28.5028,-39.1482,
1.5790,-0.0053,-0.1752,1.0076,-0.0061,0.0011,0.0139,0.0273,-0.0034,-0.0006,1.4782,28.5028,-39.1482,
1.5800,-0.0053,-0.1752,1.0076,-0.0061,0.0011,0.0139,0.0157,-0.0010,0.0015,1.4782,28.5028,-39.1482,
1.5960,-0.0073,-0.1762,1.0120,-0.0061,0.0011,0.0139,0.0157,-0.0010,0.0015,1.4782,28.5028,-39.1482,
1.5970,-0.0073,-0.1762,1.0120,-0.0061,0.0011,0.0139,0.0157,-0.0010,0.0015,1.4863,28.4733,-39.1533,
1.5980,-0.0073,-0.1762,1.0120,-0.0061,0.0011,0.0139,0.0172,0.0027,0.0028,1.4863,28.4733,-39.1533,
1.6100,-0.0073,-0.1762,1.0120,0.0084,0.0101,-0.0071,0.0172,0.0027,0.0028,1.4863,28.4733,-39.1533,
1.6110,-0.0042,-0.1760,1.0131,0.0084,0.0101,-0.0071,0.0172,0.0027,0.0028,1.4863,28.4733,-39.1533,
1.6440,-0.0039,-0.1723,1.0186,0.0084,0.0101,-0.0071,0.0172,0.0027,0.0028,1.4863,28.4733,-39.1533,
1.6450,-0.0039,-0.1723,1.0186,0.0084,0.0101,-0.0071,0.0307,0.0033,0.0028,1.4863,28.4733,-39.1533,
1.6560,-0.0053,-0.1694,1.0087,0.0084,0.0101,-0.0071,0.0307,0.0033,0.0028,1.4863,28.4733,-39.1533,
1.6570,-0.0053,-0.1694,1.0087,0.0084,0.0101,-0.0071,0.0307,0.0033,0.0028,1.4600,28.3951,-39.1822,
1.6690,-0.0078,-0.1705,0.9937,0.0084,0.0101,-0.0071,0.0307,0.0033,0.0028,1.4600,28.3951,-39.1822,
1.6700,-0.0078,-0.1705,0.9937,-0.0393,-0.0129,-0.0078,0.0307,0.0033,0.0028,1.4600,28.3951,-39.1822,
1.6700,-0.0078,-0.1705,0.9937,-0.0393,-0.0129,-0.0078,-0.0005,-0.0184,-0.0009,1.4600,28.3951,-39.1822,
1.7110,0.0001,-0.1760,1.0157,-0.0393,-0.0129,-0.0078,-0.0005,-0.0184,-0.0009,1.4600,28.3951,-39.1822,
1.7120,0.0001,-0.1760,1.0157,-0.0393,-0.0129,-0.0078,0.0081,0.0069,0.0025,1.4600,28.3951,-39.1822,
1.7130,-0.0026,-0.1772,1.0290,-0.0393,-0.0129,-0.0078,0.0081,0.0069,0.0025,1.4600,28.3951,-39.1822,
1.7170,-0.0026,-0.1772,1.0290,-0.0393,-0.0129,-0.0078,0.0081,0.0069,0.0025,1.4658,28.3594,-39.1889,
1.7290,0.0012,-0.1730,0.9944,-0.0393,-0.0129,-0.0078,0.0081,0.0069,0.0025,1.4658,28.3594,-39.1889,
1.7480,0.0012,-0.1730,0.9944,-0.0330,0.0162,-0.0452,0.0081,0.0069,0.0025,1.4658,28.3594,-39.1889,
1.7490,0.0012,-0.1730,0.9944,-0.0330,0.0162,-0.0452,0.0123,-0.0053,0.0025,1.4658,28.3594,-39.1889,
1.7510,-0.0039,-0.1739,1.0107,-0.0330,0.0162,-0.0452,0.0123,-0.0053,0.0025,1.4658,28.3594,-39.1889,
1.7770,-0.0038,-0.1706,1.0255,-0.0330,0.0162,-0.0452,0.0123,-0.0053,0.0025,1.4658,28.3594,-39.1889,
1.7950,-0.0057,-0.1634,1.0075,-0.0330,0.0162,-0.0452,0.0123,-0.0053,0.0025,1.4658,28.3594,-39.1889,
1.7960,-0.0057,-0.1634,1.0075,-0.0330,0.0162,-0.0452,0.0450,0.0027,0.0021,1.4658,28.3594,-39.1889,
1.7970,-0.0057,-0.1634,1.0075,-0.0330,0.0162,-0.0452,0.0450,0.0027,0.0021,1.5238,28.3172,-39.2287,
1.8080,-0.0053,-0.1590,0.9988,-0.0330,0.0162,-0.0452,0.0450,0.0027,0.0021,1.5238,28.3172,-39.2287,
1.8090,-0.0053,-0.1590,0.9988,-0.0016,-0.0290,0.0284,0.0450,0.0027,0.0021,1.5238,28.3172,-39.2287,
1.8450,-0.0053,-0.1590,0.9988,-0.0016,-0.0290,0.0284,-0.0197,-0.0080,-0.0033,1.5238,28.3172,-39.2287,
1.8470,-0.0046,-0.1683,1.0159,-0.0016,-0.0290,0.0284,-0.0197,-0.0080,-0.0033,1.5238,28.3172,-39.2287,
1.8470,-0.0043,-0.1761,1.0205,-0.0016,-0.0290,0.0284,-0.0197,-0.0080,-0.0033,1.5238,28.3172,-39.2287,
1.8560,-0.0043,-0.1761,1.0205,-0.0016,-0.0290,0.0284,-0.0197,-0.0080,-0.0033,1.5763,28.2905,-39.2551,
1.8840,-0.0045,-0.1763,1.0098,-0.0016,-0.0290,0.0284,-0.0197,-0.0080,-0.0033,1.5763,28.2905,-39.2551,
1.8850,-0.0060,-0.1737,1.0128,-0.0016,-0.0290,0.0284,-0.0197,-0.0080,-0.0033,1.5763,28.2905,-39.2551,
1.8850,-0.0060,-0.1737,1.0128,-0.0292,0.0692,-0.0048,-0.0197,-0.0080,-0.0033,1.5763,28.2905,-39.2551,
1.8860,-0.0060,-0.1737,1.0128,-0.0292,0.0692,-0.0048,-0.0032,0.0005,-0.0030,1.5763,28.2905,-39.2551,
1.9110,-0.0060,-0.1721,1.0126,-0.0292,0.0692,-0.0048,-0.0032,0.0005,-0.0030,1.5763,28.2905,-39.2551,
1.9120,-0.0060,-0.1721,1.0126,-0.0292,0.0692,-0.0048,0.0062,0.0039,-0.0015,1.5763,28.2905,-39.2551,
1.9160,-0.0060,-0.1721,1.0126,-0.0292,0.0692,-0.0048,0.0062,0.0039,-0.0015,1.6417,28.2352,-39.2822,
1.9420,-0.0045,-0.1700,1.0098,-0.0292,0.0692,-0.0048,0.0062,0.0039,-0.0015,1.6417,28.2352,-39.2822,
1.9430,-0.0048,-0.1699,1.0091,-0.0292,0.0692,-0.0048,0.0062,0.0039,-0.0015,1.6417,28.2352,-39.2822,
1.9440,-0.0048,-0.1699,1.0091,-0.0292,0.0692,-0.0048,0.0102,-0.0007,0.0003,1.6417,28.2352,-39.2822,
1.9450,-0.0048,-0.1699,1.0091,-0.0284,-0.0335,0.0351,0.0102,-0.0007,0.0003,1.6417,28.2352,-39.2822,
1.9770,-0.0024,-0.1702,1.0122,-0.0284,-0.0335,0.0351,0.0102,-0.0007,0.0003,1.6417,28.2352,-39.2822,
1.9970,-0.0024,-0.1702,1.0122,-0.0284,-0.0335,0.0351,0.0096,-0.0016,0.0003,1.6417,28.2352,-39.2822,
1.9980,-0.0044,-0.1699,1.0139,-0.0284,-0.0335,0.0351,0.0096,-0.0016,0.0003,1.6417,28.2352,-39.2822,
1.9980,-0.0044,-0.1699,1.0139,-0.0284,-0.0335,0.0351,0.0096,-0.0016,0.0003,1.5732,28.1836,-39.2976,
2.0200,-0.0044,-0.1699,1.0139,-0.0284,-0.0335,0.0351,0.0068,-0.0050,-0.0024,1.5732,28.1836,-39.2976,
2.0210,-0.0050,-0.1695,1.0128,-0.0284,-0.0335,0.0351,0.0068,-0.0050,-0.0024,1.5732,28.1836,-39.2976,
2.0210,-0.0046,-0.1706,1.0119,-0.0284,-0.0335,0.0351,0.0068,-0.0050,-0.0024,1.5732,28.1836,-39.2976,
2.0220,-0.0046,-0.1706,1.0119,-0.0248,0.0015,-0.0110,0.0068,-0.0050,-0.0024,1.5732,28.1836,-39.2976,
2.0440,-0.0021,-0.1713,1.0128,-0.0248,0.0015,-0.0110,0.0068,-0.0050,-0.0024,1.5732,28.1836,-39.2976,
2.0550,-0.0021,-0.1713,1.0128,-0.0248,0.0015,-0.0110,0.0068,-0.0050,-0.0024,1.5822,28.1446,-39.3459,
2.0800,-0.0021,-0.1713,1.0128,-0.0248,0.0015,-0.0110,0.0029,-0.0031,0.0000,1.5822,28.1446,-39.3459,
2.0810,-0.0054,-0.1711,1.0162,-0.0248,0.0015,-0.0110,0.0029,-0.0031,0.0000,1.5822,28.1446,-39.3459,
2.0820,-0.0064,-0.1684,1.0119,-0.0248,0.0015,-0.0110,0.0029,-0.0031,0.0000,1.5822,28.1446,-39.3459,
2.0830,-0.0064,-0.1684,1.0119,-0.0201,-0.0003,0.0101,0.0029,-0.0031,0.0000,1.5822,28.1446,-39.3459,
2.1110,-0.0064,-0.1658,1.0090,-0.0201,-0.0003,0.0101,0.0029,-0.0031,0.0000,1.5822,28.1446,-39.3459,
2.1120,-0.0064,-0.1658,1.0090,-0.0201,-0.0003,0.0101,0.0200,-0.0007,0.0031,1.5822,28.1446,-39.3459,
2.1150,-0.0064,-0.1658,1.0090,-0.0201,-0.0003,0.0101,0.0200,-0.0007,0.0031,1.5392,28.1006,-39.3616,
2.1580,-0.0056,-0.1650,1.0090,-0.0201,-0.0003,0.0101,0.0200,-0.0007,0.0031,1.5392,28.1006,-39.3616,
2.1590,-0.0056,-0.1650,1.0090,-0.0238,-0.0016,0.0098,0.0200,-0.0007,0.0031,1.5392,28.1006,-39.3616,
2.1590,-0.0059,-0.1668,1.0140,-0.0238,-0.0016,0.0098,0.0200,-0.0007,0.0031,1.5392,28.1006,-39.3616,
2.1600,-0.0061,-0.1688,1.0157,-0.0238,-0.0016,0.0098,0.0200,-0.0007,0.0031,1.5392,28.1006,-39.3616,
2.1610,-0.0061,-0.1688,1.0157,-0.0238,-0.0016,0.0098,0.0059,-0.0028,0.0015,1.5392,28.1006,-39.3616,
2.1770,-0.0048,-0.1704,1.0130,-0.0238,-0.0016,0.0098,0.0059,-0.0028,0.0015,1.5392,28.1006,-39.3616,
2.1780,-0.0048,-0.1704,1.0130,-0.0238,-0.0016,0.0098,0.0071,-0.0041,0.0003,1.5392,28.1006,-39.3616,
2.1990,-0.0048,-0.1704,1.0130,-0.0238,-0.0016,0.0098,0.0071,-0.0041,0.0003,1.5538,28.0986,-39.3623,
2.2000,-0.0027,-0.1694,1.0148,-0.0238,-0.0016,0.0098,0.0071,-0.0041,0.0003,1.5538,28.0986,-39.3623,
2.2160,-0.0027,-0.1694,1.0148,-0.0299,0.0185,-0.0008,0.0071,-0.0041,0.0003,1.5538,28.0986,-39.3623,
2.2170,-0.0075,-0.1671,1.0122,-0.0299,0.0185,-0.0008,0.0071,-0.0041,0.0003,1.5538,28.0986,-39.3623,
2.2170,-0.0075,-0.1671,1.0122,-0.0299,0.0185,-0.0008,0.0108,0.0045,-0.0006,1.5538,28.0986,-39.3623,
2.2440,-0.0087,-0.1665,1.0087,-0.0299,0.0185,-0.0008,0.0108,0.0045,-0.0006,1.5538,28.0986,-39.3623,
2.2550,-0.0095,-0.1655,1.0092,-0.0299,0.0185,-0.0008,0.0108,0.0045,-0.0006,1.5538,28.0986,-39.3623,
2.2560,-0.0095,-0.1655,1.0092,-0.0299,0.0185,-0.0008,0.0102,0.0021,-0.0024,1.5538,28.0986,-39.3623,
2.2570,-0.0095,-0.1655,1.0092,-0.0299,0.0185,-0.0008,0.0102,0.0021,-0.0024,1.5554,28.0710,-39.3897,
2.2950,-0.0095,-0.1655,1.0092,-0.0215,-0.0067,0.0019,0.0102,0.0021,-0.0024,1.5554,28.0710,-39.3897,
2.2970,-0.0084,-0.1694,1.0115,-0.0215,-0.0067,0.0019,0.0102,0.0021,-0.0024,1.5554,28.0710,-39.3897,
2.2970,-0.0082,-0.1702,1.0113,-0.0215,-0.0067,0.0019,0.0102,0.0021,-0.0024,1.5554,28.0710,-39.3897,
2.2980,-0.0082,-0.1702,1.0113,-0.0215,-0.0067,0.0019,0.0105,0.0005,-0.0018,1.5554,28.0710,-39.3897,
2.3160,-0.0071,-0.1698,1.0118,-0.0215,-0.0067,0.0019,0.0105,0.0005,-0.0018,1.5554,28.0710,-39.3897,
2.3170,-0.0071,-0.1698,1.0118,-0.0215,-0.0067,0.0019,0.0105,0.0005,-0.0018,1.5643,28.0352,-39.4337,
2.3540,-0.0057,-0.1685,1.0140,-0.0215,-0.0067,0.0019,0.0105,0.0005,-0.0018,1.5643,28.0352,-39.4337,
2.3550,-0.0057,-0.1660,1.0155,-0.0215,-0.0067,0.0019,0.0105,0.0005,-0.0018,1.5643,28.0352,-39.4337,
2.3550,-0.0057,-0.1660,1.0155,-0.0487,-0.0075,-0.0174,0.0105,0.0005,-0.0018,1.5643,28.0352,-39.4337,
2.3560,-0.0057,-0.1660,1.0155,-0.0487,-0.0075,-0.0174,0.0111,-0.0013,-0.0052,1.5643,28.0352,-39.4337,
2.3770,-0.0045,-0.1649,1.0139,-0.0487,-0.0075,-0.0174,0.0111,-0.0013,-0.0052,1.5643,28.0352,-39.4337,
2.3780,-0.0045,-0.1649,1.0139,-0.0487,-0.0075,-0.0174,0.0105,0.0008,-0.0058,1.5643,28.0352,-39.4337,
2.3960,-0.0056,-0.1635,1.0147,-0.0487,-0.0075,-0.0174,0.0105,0.0008,-0.0058,1.5643,28.0352,-39.4337,
2.3970,-0.0056,-0.1635,1.0147,-0.0487,-0.0075,-0.0174,0.0105,0.0008,-0.0058,1.5574,28.0022,-39.4705,
2.4320,-0.0054,-0.1630,1.0134,-0.0487,-0.0075,-0.0174,0.0105,0.0008,-0.0058,1.5574,28.0022,-39.4705,
2.4340,-0.0054,-0.1630,1.0134,-0.0196,-0.0066,0.0114,0.0105,0.0008,-0.0058,1.5574,28.0022,-39.4705,
2.4350,-0.0048,-0.1645,1.0130,-0.0196,-0.0066,0.0114,0.0105,0.0008,-0.0058,1.5574,28.0022,-39.4705,
2.4350,-0.0048,-0.1645,1.0130,-0.0196,-0.0066,0.0114,0.0053,0.0008,-0.0037,1.5574,28.0022,-39.4705,
2.4550,-0.0077,-0.1658,1.0109,-0.0196,-0.0066,0.0114,0.0053,0.0008,-0.0037,1.5574,28.0022,-39.4705,
2.4560,-0.0077,-0.1658,1.0109,-0.0196,-0.0066,0.0114,0.0023,0.0017,-0.0009,1.5574,28.0022,-39.4705,
2.4570,-0.0077,-0.1658,1.0109,-0.0196,-0.0066,0.0114,0.0023,0.0017,-0.0009,1.5613,27.9678,-39.5101,
2.4880,-0.0077,-0.1658,1.0109,-0.0058,0.0218,0.0106,0.0023,0.0017,-0.0009,1.5613,27.9678,-39.5101,
2.4890,-0.0077,-0.1658,1.0109,-0.0058,0.0218,0.0106,0.0123,0.0057,-0.0012,1.5613,27.9678,-39.5101,
2.4900,-0.0100,-0.1668,1.0125,-0.0058,0.0218,0.0106,0.0123,0.0057,-0.0012,1.5613,27.9678,-39.5101,
2.4910,-0.0078,-0.1666,1.0150,-0.0058,0.0218,0.0106,0.0123,0.0057,-0.0012,1.5613,27.9678,-39.5101,
2.5100,-0.0055,-0.1644,1.0172,-0.0058,0.0218,0.0106,0.0123,0.0057,-0.0012,1.5613,27.9678,-39.5101,
2.5160,-0.0055,-0.1644,1.0172,-0.0058,0.0218,0.0106,0.0123,0.0057,-0.0012,1.6248,27.9402,-39.5315,
2.5670,-0.0055,-0.1644,1.0172,-0.0372,0.0018,0.0043,0.0123,0.0057,-0.0012,1.6248,27.9402,-39.5315,
2.5680,-0.0070,-0.1614,1.0181,-0.0372,0.0018,0.0043,0.0123,0.0057,-0.0012,1.6248,27.9402,-39.5315,
2.5690,-0.0104,-0.1614,1.0082,-0.0372,0.0018,0.0043,0.0123,0.0057,-0.0012,1.6248,27.9402,-39.5315,
2.5690,-0.0110,-0.1652,0.9951,-0.0372,0.0018,0.0043,0.0123,0.0057,-0.0012,1.6248,27.9402,-39.5315,
2.5700,-0.0110,-0.1652,0.9951,-0.0372,0.0018,0.0043,0.0114,0.0027,-0.0021,1.6248,27.9402,-39.5315,
2.5700,-0.0110,-0.1652,0.9951,-0.0372,0.0018,0.0043,-0.0170,-0.0163,-0.0033,1.6248,27.9402,-39.5315,
2.5990,-0.0065,-0.1698,1.0296,-0.0372,0.0018,0.0043,-0.0170,-0.0163,-0.0033,1.6248,27.9402,-39.5315,
2.5990,-0.0065,-0.1698,1.0296,-0.0372,0.0018,0.0043,-0.0170,-0.0163,-0.0033,1.6550,27.9129,-39.5149,
2.6260,-0.0057,-0.1689,1.0202,-0.0372,0.0018,0.0043,-0.0170,-0.0163,-0.0033,1.6550,27.9129,-39.5149,
2.6270,-0.0057,-0.1689,1.0202,-0.0372,0.0018,0.0043,-0.0084,0.0130,0.0003,1.6550,27.9129,-39.5149,
2.6280,-0.0070,-0.1701,0.9998,-0.0372,0.0018,0.0043,-0.0084,0.0130,0.0003,1.6550,27.9129,-39.5149,
2.6290,-0.0070,-0.1701,0.9998,-0.0342,0.0352,-0.0332,-0.0084,0.0130,0.0003,1.6550,27.9129,-39.5149,
2.6560,-0.0060,-0.1691,1.0188,-0.0342,0.0352,-0.0332,-0.0084,0.0130,0.0003,1.6550,27.9129,-39.5149,
2.6570,-0.0060,-0.1691,1.0188,-0.0342,0.0352,-0.0332,0.0011,0.0079,0.0015,1.6550,27.9129,-39.5149,
2.6580,-0.0060,-0.1691,1.0188,-0.0342,0.0352,-0.0332,0.0011,0.0079,0.0015,1.7304,27.8935,-39.5508,
2.7050,-0.0076,-0.1644,1.0208,-0.0342,0.0352,-0.0332,0.0011,0.0079,0.0015,1.7304,27.8935,-39.5508,
2.7060,-0.0105,-0.1542,1.0018,-0.0342,0.0352,-0.0332,0.0011,0.0079,0.0015,1.7304,27.8935,-39.5508,
2.7070,-0.0088,-0.1548,1.0063,-0.0342,0.0352,-0.0332,0.0011,0.0079,0.0015,1.7304,27.8935,-39.5508,
2.7070,-0.0088,-0.1548,1.0063,-0.0342,0.0352,-0.0332,0.0331,0.0088,0.0006,1.7304,27.8935,-39.5508,
2.7080,-0.0088,-0.1548,1.0063,-0.0059,-0.0346,0.0300,0.0331,0.0088,0.0006,1.7304,27.8935,-39.5508,
2.7160,-0.0088,-0.1548,1.0063,-0.0059,-0.0346,0.0300,0.0331,0.0088,0.0006,1.7640,27.8642,-39.5863,
2.7300,-0.0110,-0.1638,1.0230,-0.0059,-0.0346,0.0300,0.0331,0.0088,0.0006,1.7640,27.8642,-39.5863,
2.7310,-0.0110,-0.1638,1.0230,-0.0059,-0.0346,0.0300,-0.0331,0.0039,-0.0086,1.7640,27.8642,-39.5863,
2.7630,-0.0110,-0.1638,1.0230,-0.0152,0.0674,-0.0049,-0.0331,0.0039,-0.0086,1.7640,27.8642,-39.5863,
2.7640,-0.0110,-0.1638,1.0230,-0.0152,0.0674,-0.0049,-0.0115,0.0112,-0.0086,1.7640,27.8642,-39.5863,
2.7660,-0.0110,-0.1691,1.0186,-0.0152,0.0674,-0.0049,-0.0115,0.0112,-0.0086,1.7640,27.8642,-39.5863,
2.7660,-0.0106,-0.1684,1.0125,-0.0152,0.0674,-0.0049,-0.0115,0.0112,-0.0086,1.7640,27.8642,-39.5863,
2.7970,-0.0106,-0.1684,1.0125,-0.0152,0.0674,-0.0049,-0.0115,0.0112,-0.0086,1.7810,27.8289,-39.6028,
2.7990,-0.0112,-0.1656,1.0146,-0.0152,0.0674,-0.0049,-0.0115,0.0112,-0.0086,1.7810,27.8289,-39.6028,
2.8400,-0.0112,-0.1656,1.0146,-0.0152,0.0674,-0.0049,-0.0060,0.0097,-0.0062,1.7810,27.8289,-39.6028,
2.8410,-0.0120,-0.1633,1.0126,-0.0152,0.0674,-0.0049,-0.0060,0.0097,-0.0062,1.7810,27.8289,-39.6028,
2.8430,-0.0114,-0.1628,1.0102,-0.0152,0.0674,-0.0049,-0.0060,0.0097,-0.0062,1.7810,27.8289,-39.6028,
2.8440,-0.0087,-0.1636,1.0108,-0.0152,0.0674,-0.0049,-0.0060,0.0097,-0.0062,1.7810,27.8289,-39.6028,
2.8450,-0.0087,-0.1636,1.0108,-0.0152,0.0674,-0.0049,-0.0081,0.0048,-0.0034,1.7810,27.8289,-39.6028,
2.8450,-0.0087,-0.1636,1.0108,-0.0331,-0.0010,0.0453,-0.0081,0.0048,-0.0034,1.7810,27.8289,-39.6028,
2.8550,-0.0087,-0.1636,1.0108,-0.0331,-0.0010,0.0453,-0.0081,0.0048,-0.0034,1.7855,27.8048,-39.6018,
2.9000,-0.0087,-0.1636,1.0108,-0.0233,0.0346,-0.0105,-0.0081,0.0048,-0.0034,1.7855,27.8048,-39.6018,
2.9000,-0.0087,-0.1636,1.0108,-0.0233,0.0346,-0.0105,-0.0060,0.0069,-0.0031,1.7855,27.8048,-39.6018,
2.9010,-0.0077,-0.1635,1.0169,-0.0233,0.0346,-0.0105,-0.0060,0.0069,-0.0031,1.7855,27.8048,-39.6018,
2.9010,-0.0079,-0.1618,1.0144,-0.0233,0.0346,-0.0105,-0.0060,0.0069,-0.0031,1.7855,27.8048,-39.6018,
2.9020,-0.0083,-0.1623,1.0153,-0.0233,0.0346,-0.0105,-0.0060,0.0069,-0.0031,1.7855,27.8048,-39.6018,
2.9160,-0.0083,-0.1623,1.0153,-0.0233,0.0346,-0.0105,-0.0060,0.0069,-0.0031,1.7886,27.7721,-39.6187,
2.9790,-0.0079,-0.1643,1.0146,-0.0233,0.0346,-0.0105,-0.0060,0.0069,-0.0031,1.7886,27.7721,-39.6187,
2.9800,-0.0079,-0.1643,1.0146,-0.0233,0.0346,-0.0105,-0.0142,0.0039,-0.0043,1.7886,27.7721,-39.6187,
2.9810,-0.0079,-0.1643,1.0146,-0.0233,0.0346,-0.0105,-0.0084,0.0082,-0.0016,1.7886,27.7721,-39.6187,
2.9820,-0.0083,-0.1650,1.0183,-0.0233,0.0346,-0.0105,-0.0084,0.0082,-0.0016,1.7886,27.7721,-39.6187,
2.9820,-0.0105,-0.1643,1.0167,-0.0233,0.0346,-0.0105,-0.0084,0.0082,-0.0016,1.7886,27.7721,-39.6187,
2.9830,-0.0099,-0.1618,1.0080,-0.0233,0.0346,-0.0105,-0.0084,0.0082,-0.0016,1.7886,27.7721,-39.6187,
2.9840,-0.0099,-0.1618,1.0080,0.0056,0.0429,0.0286,-0.0084,0.0082,-0.0016,1.7886,27.7721,-39.6187,
2.9970,-0.0110,-0.1605,1.0107,0.0056,0.0429,0.0286,-0.0084,0.0082,-0.0016,1.7886,27.7721,-39.6187,
2.9980,-0.0110,-0.1605,1.0107,0.0056,0.0429,0.0286,-0.0057,0.0088,-0.0004,1.7886,27.7721,-39.6187,
2.9990,-0.0110,-0.1605,1.0107,0.0056,0.0429,0.0286,-0.0057,0.0088,-0.0004,1.7754,27.7664,-39.6035,
3.0350,-0.0127,-0.1625,1.0113,0.0056,0.0429,0.0286,-0.0057,0.0088,-0.0004,1.7754,27.7664,-39.6035,
3.0360,-0.0121,-0.1638,1.0150,0.0056,0.0429,0.0286,-0.0057,0.0088,-0.0004,1.7754,27.7664,-39.6035,
3.0370,-0.0121,-0.1638,1.0150,0.0056,0.0429,0.0286,-0.0105,0.0033,-0.0007,1.7754,27.7664,-39.6035,
3.0380,-0.0121,-0.1638,1.0150,-0.0016,0.0334,0.0082,-0.0105,0.0033,-0.0007,1.7754,27.7664,-39.6035,
3.0560,-0.0114,-0.1646,1.0155,-0.0016,0.0334,0.0082,-0.0105,0.0033,-0.0007,1.7754,27.7664,-39.6035,
3.0570,-0.0114,-0.1646,1.0155,-0.0016,0.0334,0.0082,-0.0105,0.0033,-0.0007,1.7719,27.7586,-39.6257,
3.1120,-0.0099,-0.1654,1.0152,-0.0016,0.0334,0.0082,-0.0105,0.0033,-0.0007,1.7719,27.7586,-39.6257,
3.1130,-0.0110,-0.1651,1.0153,-0.0016,0.0334,0.0082,-0.0105,0.0033,-0.0007,1.7719,27.7586,-39.6257,
3.1140,-0.0110,-0.1651,1.0153,-0.0016,0.0334,0.0082,-0.0108,0.0017,-0.0010,1.7719,27.7586,-39.6257,
3.1140,-0.0125,-0.1638,1.0146,-0.0016,0.0334,0.0082,-0.0108,0.0017,-0.0010,1.7719,27.7586,-39.6257,
3.1150,-0.0125,-0.1638,1.0146,-0.0016,0.0334,0.0082,-0.0090,0.0054,-0.0028,1.7719,27.7586,-39.6257,
3.1150,-0.0125,-0.1638,1.0146,-0.0225,0.0474,-0.0017,-0.0090,0.0054,-0.0028,1.7719,27.7586,-39.6257,
3.1160,-0.0125,-0.1638,1.0146,-0.0225,0.0474,-0.0017,-0.0090,0.0054,-0.0028,1.7838,27.7570,-39.6069,
3.1720,-0.0125,-0.1638,1.0146,-0.0108,0.0285,0.0213,-0.0090,0.0054,-0.0028,1.7838,27.7570,-39.6069,
3.1730,-0.0127,-0.1632,1.0128,-0.0108,0.0285,0.0213,-0.0090,0.0054,-0.0028,1.7838,27.7570,-39.6069,
3.1740,-0.0127,-0.1632,1.0128,-0.0108,0.0285,0.0213,-0.0093,0.0051,-0.0016,1.7838,27.7570,-39.6069,
3.1740,-0.0115,-0.1633,1.0115,-0.0108,0.0285,0.0213,-0.0093,0.0051,-0.0016,1.7838,27.7570,-39.6069,
3.1750,-0.0108,-0.1643,1.0124,-0.0108,0.0285,0.0213,-0.0093,0.0051,-0.0016,1.7838,27.7570,-39.6069,
3.1960,-0.0108,-0.1643,1.0124,-0.0108,0.0285,0.0213,-0.0081,0.0051,-0.0007,1.7838,27.7570,-39.6069,
3.1970,-0.0100,-0.1652,1.0134,-0.0108,0.0285,0.0213,-0.0081,0.0051,-0.0007,1.7838,27.7570,-39.6069,
3.1970,-0.0100,-0.1652,1.0134,-0.0108,0.0285,0.0213,-0.0081,0.0051,-0.0007,1.7484,27.7479,-39.6279,
3.2300,-0.0100,-0.1652,1.0134,-0.0108,0.0285,0.0213,-0.0038,0.0051,-0.0013,1.7484,27.7479,-39.6279,
3.2310,-0.0108,-0.1644,1.0139,-0.0108,0.0285,0.0213,-0.0038,0.0051,-0.0013,1.7484,27.7479,-39.6279,
3.2450,-0.0105,-0.1634,1.0136,-0.0108,0.0285,0.0213,-0.0038,0.0051,-0.0013,1.7484,27.7479,-39.6279,
3.2500,-0.0105,-0.1634,1.0136,-0.0096,0.0360,-0.0047,-0.0038,0.0051,-0.0013,1.7484,27.7479,-39.6279,
3.2510,-0.0108,-0.1629,1.0150,-0.0096,0.0360,-0.0047,-0.0038,0.0051,-0.0013,1.7484,27.7479,-39.6279,
3.2580,-0.0108,-0.1629,1.0150,-0.0096,0.0360,-0.0047,-0.0038,0.0051,-0.0013,1.7565,27.7444,-39.5865,
3.3090,-0.0112,-0.1607,1.0142,-0.0096,0.0360,-0.0047,-0.0038,0.0051,-0.0013,1.7565,27.7444,-39.5865,
3.3100,-0.0112,-0.1607,1.0142,-0.0096,0.0360,-0.0047,-0.0050,0.0048,-0.0010,1.7565,27.7444,-39.5865,
3.3110,-0.0112,-0.1607,1.0142,-0.0096,0.0360,-0.0047,-0.0093,0.0033,-0.0001,1.7565,27.7444,-39.5865,
3.3110,-0.0116,-0.1617,1.0151,-0.0096,0.0360,-0.0047,-0.0093,0.0033,-0.0001,1.7565,27.7444,-39.5865,
3.3120,-0.0109,-0.1624,1.0134,-0.0096,0.0360,-0.0047,-0.0093,0.0033,-0.0001,1.7565,27.7444,-39.5865,
3.3130,-0.0109,-0.1624,1.0134,0.0021,0.0378,0.0105,-0.0093,0.0033,-0.0001,1.7565,27.7444,-39.5865,
3.3160,-0.0109,-0.1624,1.0134,0.0021,0.0378,0.0105,-0.0093,0.0033,-0.0001,1.7749,27.7441,-39.5724,
3.3770,-0.0106,-0.1635,1.0109,0.0021,0.0378,0.0105,-0.0093,0.0033,-0.0001,1.7749,27.7441,-39.5724,
3.3780,-0.0141,-0.1649,1.0113,0.0021,0.0378,0.0105,-0.0093,0.0033,-0.0001,1.7749,27.7441,-39.5724,
3.3790,-0.0141,-0.1649,1.0113,0.0021,0.0378,0.0105,-0.0136,0.0060,0.0003,1.7749,27.7441,-39.5724,
3.3800,-0.0152,-0.1654,1.0142,0.0021,0.0378,0.0105,-0.0136,0.0060,0.0003,1.7749,27.7441,-39.5724,
3.3870,-0.0152,-0.1654,1.0142,0.0025,0.0548,0.0085,-0.0136,0.0060,0.0003,1.7749,27.7441,-39.5724,
3.3870,-0.0152,-0.1654,1.0142,0.0025,0.0548,0.0085,-0.0020,0.0106,-0.0007,1.7749,27.7441,-39.5724,
3.3870,-0.0110,-0.1633,1.0123,0.0025,0.0548,0.0085,-0.0020,0.0106,-0.0007,1.7749,27.7441,-39.5724,
3.3970,-0.0110,-0.1633,1.0123,0.0025,0.0548,0.0085,-0.0020,0.0106,-0.0007,1.7919,27.7501,-39.5562,
3.4480,-0.0115,-0.1612,1.0213,0.0025,0.0548,0.0085,-0.0020,0.0106,-0.0007,1.7919,27.7501,-39.5562,
3.4510,-0.0115,-0.1612,1.0213,0.0025,0.0548,0.0085,-0.0099,-0.0010,-0.0019,1.7919,27.7501,-39.5562,
3.4510,-0.0134,-0.1603,1.0090,0.0025,0.0548,0.0085,-0.0099,-0.0010,-0.0019,1.7919,27.7501,-39.5562,
3.4520,-0.0169,-0.1625,1.0052,0.0025,0.0548,0.0085,-0.0099,-0.0010,-0.0019,1.7919,27.7501,-39.5562,
3.4520,-0.0169,-0.1625,1.0052,-0.0191,0.0375,-0.0039,-0.0099,-0.0010,-0.0019,1.7919,27.7501,-39.5562,
3.4580,-0.0169,-0.1625,1.0052,-0.0191,0.0375,-0.0039,-0.0099,-0.0010,-0.0019,1.8173,27.7714,-39.5171,
3.5110,-0.0169,-0.1625,1.0052,-0.0191,0.0375,-0.0039,-0.0286,-0.0056,-0.0022,1.8173,27.7714,-39.5171,
3.5130,-0.0117,-0.1678,1.0045,-0.0191,0.0375,-0.0039,-0.0286,-0.0056,-0.0022,1.8173,27.7714,-39.5171,
3.5140,-0.0092,-0.1684,1.0311,-0.0191,0.0375,-0.0039,-0.0286,-0.0056,-0.0022,1.8173,27.7714,-39.5171,
3.5140,-0.0090,-0.1666,1.0073,-0.0191,0.0375,-0.0039,-0.0286,-0.0056,-0.0022,1.8173,27.7714,-39.5171,
3.5150,-0.0090,-0.1666,1.0073,-0.0191,0.0375,-0.0039,-0.0017,0.0042,0.0009,1.8173,27.7714,-39.5171,
3.5170,-0.0090,-0.1666,1.0073,-0.0191,0.0375,-0.0039,-0.0017,0.0042,0.0009,1.8522,27.7755,-39.5238,
3.5240,-0.0116,-0.1673,1.0080,-0.0191,0.0375,-0.0039,-0.0017,0.0042,0.0009,1.8522,27.7755,-39.5238,
3.5250,-0.0116,-0.1673,1.0080,-0.0205,0.0566,-0.0291,-0.0017,0.0042,0.0009,1.8522,27.7755,-39.5238,
3.5790,-0.0109,-0.1639,1.0251,-0.0205,0.0566,-0.0291,-0.0017,0.0042,0.0009,1.8522,27.7755,-39.5238,
3.5820,-0.0138,-0.1567,1.0098,-0.0205,0.0566,-0.0291,-0.0017,0.0042,0.0009,1.8522,27.7755,-39.5238,
3.5830,-0.0138,-0.1567,1.0098,-0.0205,0.0566,-0.0291,0.0133,0.0109,0.0054,1.8522,27.7755,-39.5238,
3.5840,-0.0116,-0.1509,1.0009,-0.0205,0.0566,-0.0291,0.0133,0.0109,0.0054,1.8522,27.7755,-39.5238,
3.5840,-0.0116,-0.1509,1.0009,-0.0205,0.0566,-0.0291,0.0118,-0.0031,0.0015,1.8522,27.7755,-39.5238,
3.5850,-0.0116,-0.1509,1.0009,0.0182,-0.0037,0.0262,0.0118,-0.0031,0.0015,1.8522,27.7755,-39.5238,
3.5970,-0.0116,-0.1509,1.0009,0.0182,-0.0037,0.0262,0.0118,-0.0031,0.0015,1.8995,27.7771,-39.5268,
3.6460,-0.0119,-0.1586,1.0152,0.0182,-0.0037,0.0262,0.0118,-0.0031,0.0015,1.8995,27.7771,-39.5268,
3.6480,-0.0125,-0.1662,1.0194,0.0182,-0.0037,0.0262,0.0118,-0.0031,0.0015,1.8995,27.7771,-39.5268,
3.6490,-0.0145,-0.1673,1.0136,0.0182,-0.0037,0.0262,0.0118,-0.0031,0.0015,1.8995,27.7771,-39.5268,
3.6490,-0.0145,-0.1673,1.0136,0.0182,-0.0037,0.0262,-0.0365,-0.0019,-0.0043,1.8995,27.7771,-39.5268,
3.6560,-0.0145,-0.1673,1.0136,0.0182,-0.0037,0.0262,-0.0365,-0.0019,-0.0043,1.8941,27.7660,-39.5408,
3.6610,-0.0145,-0.1673,1.0136,-0.0013,0.1004,-0.0037,-0.0365,-0.0019,-0.0043,1.8941,27.7660,-39.5408,
3.6620,-0.0158,-0.1655,1.0118,-0.0013,0.1004,-0.0037,-0.0365,-0.0019,-0.0043,1.8941,27.7660,-39.5408,
3.6630,-0.0158,-0.1655,1.0118,-0.0013,0.1004,-0.0037,-0.0075,0.0057,-0.0031,1.8941,27.7660,-39.5408,
3.7120,-0.0159,-0.1634,1.0126,-0.0013,0.1004,-0.0037,-0.0075,0.0057,-0.0031,1.8941,27.7660,-39.5408,
3.7140,-0.0154,-0.1625,1.0111,-0.0013,0.1004,-0.0037,-0.0075,0.0057,-0.0031,1.8941,27.7660,-39.5408,
3.7150,-0.0154,-0.1625,1.0111,-0.0013,0.1004,-0.0037,-0.0035,0.0017,-0.0007,1.8941,27.7660,-39.5408,
3.7160,-0.0154,-0.1625,1.0111,-0.0013,0.1004,-0.0037,-0.0035,0.0017,-0.0007,1.9229,27.7759,-39.5158,
3.7190,-0.0154,-0.1625,1.0111,-0.0170,0.0192,0.0258,-0.0035,0.0017,-0.0007,1.9229,27.7759,-39.5158,
3.7200,-0.0122,-0.1617,1.0097,-0.0170,0.0192,0.0258,-0.0035,0.0017,-0.0007,1.9229,27.7759,-39.5158,
3.7810,-0.0122,-0.1617,1.0097,-0.0170,0.0192,0.0258,-0.0096,-0.0025,-0.0001,1.9229,27.7759,-39.5158,
3.7830,-0.0105,-0.1607,1.0128,-0.0170,0.0192,0.0258,-0.0096,-0.0025,-0.0001,1.9229,27.7759,-39.5158,
3.7830,-0.0114,-0.1610,1.0141,-0.0170,0.0192,0.0258,-0.0096,-0.0025,-0.0001,1.9229,27.7759,-39.5158,
3.7850,-0.0114,-0.1610,1.0141,-0.0170,0.0192,0.0258,-0.0081,-0.0028,-0.0022,1.9229,27.7759,-39.5158,
3.7850,-0.0133,-0.1610,1.0124,-0.0170,0.0192,0.0258,-0.0081,-0.0028,-0.0022,1.9229,27.7759,-39.5158,
3.7960,-0.0133,-0.1610,1.0124,-0.0176,0.0519,-0.0118,-0.0081,-0.0028,-0.0022,1.9229,27.7759,-39.5158,
3.7980,-0.0125,-0.1625,1.0145,-0.0176,0.0519,-0.0118,-0.0081,-0.0028,-0.0022,1.9229,27.7759,-39.5158,
3.7990,-0.0125,-0.1625,1.0145,-0.0176,0.0519,-0.0118,-0.0081,-0.0028,-0.0022,1.9196,27.7813,-39.5648,
3.8450,-0.0125,-0.1625,1.0145,-0.0176,0.0519,-0.0118,-0.0188,-0.0053,-0.0022,1.9196,27.7813,-39.5648,
3.8460,-0.0092,-0.1647,1.0106,-0.0176,0.0519,-0.0118,-0.0188,-0.0053,-0.0022,1.9196,27.7813,-39.5648,
3.8470,-0.0111,-0.1640,1.0200,-0.0176,0.0519,-0.0118,-0.0188,-0.0053,-0.0022,1.9196,27.7813,-39.5648,
3.8560,-0.0111,-0.1640,1.0200,-0.0004,0.0581,0.0117,-0.0188,-0.0053,-0.0022,1.9196,27.7813,-39.5648,
3.8570,-0.0111,-0.1640,1.0200,-0.0004,0.0581,0.0117,-0.0014,0.0014,-0.0004,1.9196,27.7813,-39.5648,
3.8580,-0.0120,-0.1624,1.0119,-0.0004,0.0581,0.0117,-0.0014,0.0014,-0.0004,1.9196,27.7813,-39.5648,
3.8580,-0.0120,-0.1624,1.0119,-0.0004,0.0581,0.0117,-0.0014,0.0014,-0.0004,1.9200,27.7846,-39.5610,
3.9120,-0.0110,-0.1605,1.0096,-0.0004,0.0581,0.0117,-0.0014,0.0014,-0.0004,1.9200,27.7846,-39.5610,
3.9140,-0.0110,-0.1605,1.0096,-0.0004,0.0581,0.0117,-0.0072,0.0008,-0.0007,1.9200,27.7846,-39.5610,
3.9150,-0.0117,-0.1608,1.0125,-0.0004,0.0581,0.0117,-0.0072,0.0008,-0.0007,1.9200,27.7846,-39.5610,
3.9160,-0.0126,-0.1613,1.0153,-0.0004,0.0581,0.0117,-0.0072,0.0008,-0.0007,1.9200,27.7846,-39.5610,
3.9170,-0.0126,-0.1613,1.0153,-0.0004,0.0581,0.0117,-0.0072,0.0008,-0.0007,1.8716,27.7799,-39.5443,
3.9340,-0.0126,-0.1613,1.0153,0.0089,0.0397,0.0085,-0.0072,0.0008,-0.0007,1.8716,27.7799,-39.5443,
3.9350,-0.0117,-0.1614,1.0124,0.0089,0.0397,0.0085,-0.0072,0.0008,-0.0007,1.8716,27.7799,-39.5443,
3.9360,-0.0117,-0.1614,1.0124,0.0089,0.0397,0.0085,-0.0066,-0.0056,0.0015,1.8716,27.7799,-39.5443,
3.9770,-0.0117,-0.1614,1.0124,0.0089,0.0397,0.0085,-0.0075,-0.0028,0.0024,1.8716,27.7799,-39.5443,
3.9790,-0.0105,-0.1633,1.0130,0.0089,0.0397,0.0085,-0.0075,-0.0028,0.0024,1.8716,27.7799,-39.5443,
3.9790,-0.0103,-0.1641,1.0150,0.0089,0.0397,0.0085,-0.0075,-0.0028,0.0024,1.8716,27.7799,-39.5443,
3.9960,-0.0103,-0.1641,1.0150,-0.0012,0.0577,0.0047,-0.0075,-0.0028,0.0024,1.8716,27.7799,-39.5443,
3.9980,-0.0119,-0.1624,1.0126,-0.0012,0.0577,0.0047,-0.0075,-0.0028,0.0024,1.8716,27.7799,-39.5443,
3.9980,-0.0119,-0.1624,1.0126,-0.0012,0.0577,0.0047,-0.0075,-0.0028,0.0024,1.8308,27.7472,-39.5461,
4.0460,-0.0119,-0.1624,1.0126,-0.0012,0.0577,0.0047,-0.0020,-0.0004,0.0006,1.8308,27.7472,-39.5461,
4.0480,-0.0136,-0.1611,1.0107,-0.0012,0.0577,0.0047,-0.0020,-0.0004,0.0006,1.8308,27.7472,-39.5461,
4.0490,-0.0147,-0.1616,1.0124,-0.0012,0.0577,0.0047,-0.0020,-0.0004,0.0006,1.8308,27.7472,-39.5461,
4.0570,-0.0128,-0.1613,1.0118,-0.0012,0.0577,0.0047,-0.0020,-0.0004,0.0006,1.8308,27.7472,-39.5461,
4.0570,-0.0128,-0.1613,1.0118,-0.0012,0.0577,0.0047,-0.0069,-0.0016,0.0009,1.8308,27.7472,-39.5461,
4.0580,-0.0128,-0.1613,1.0118,-0.0012,0.0577,0.0047,-0.0069,-0.0016,0.0009,1.7972,27.7292,-39.5665,
4.0700,-0.0128,-0.1613,1.0118,0.0030,0.0391,0.0059,-0.0069,-0.0016,0.0009,1.7972,27.7292,-39.5665,
4.0720,-0.0125,-0.1623,1.0123,0.0030,0.0391,0.0059,-0.0069,-0.0016,0.0009,1.7972,27.7292,-39.5665,
4.1110,-0.0127,-0.1628,1.0134,0.0030,0.0391,0.0059,-0.0069,-0.0016,0.0009,1.7972,27.7292,-39.5665,
4.1120,-0.0127,-0.1628,1.0134,0.0030,0.0391,0.0059,-0.0047,-0.0016,0.0006,1.7972,27.7292,-39.5665,
4.1120,-0.0121,-0.1624,1.0141,0.0030,0.0391,0.0059,-0.0047,-0.0016,0.0006,1.7972,27.7292,-39.5665,
4.1150,-0.0121,-0.1624,1.0141,0.0030,0.0391,0.0059,-0.0047,-0.0016,0.0006,1.7705,27.7359,-39.5404,
4.1290,-0.0116,-0.1619,1.0115,0.0030,0.0391,0.0059,-0.0047,-0.0016,0.0006,1.7705,27.7359,-39.5404,
4.1300,-0.0116,-0.1619,1.0115,0.0030,0.0391,0.0059,-0.0035,-0.0013,-0.0013,1.7705,27.7359,-39.5404,
4.1310,-0.0116,-0.1619,1.0115,-0.0168,0.0476,-0.0046,-0.0035,-0.0013,-0.0013,1.7705,27.7359,-39.5404,
4.1800,-0.0100,-0.1610,1.0126,-0.0168,0.0476,-0.0046,-0.0035,-0.0013,-0.0013,1.7705,27.7359,-39.5404,
4.1810,-0.0112,-0.1601,1.0128,-0.0168,0.0476,-0.0046,-0.0035,-0.0013,-0.0013,1.7705,27.7359,-39.5404,
4.1830,-0.0112,-0.1601,1.0128,-0.0168,0.0476,-0.0046,-0.0102,-0.0001,-0.0010,1.7705,27.7359,-39.5404,
4.1970,-0.0112,-0.1601,1.0128,-0.0168,0.0476,-0.0046,-0.0102,-0.0001,-0.0010,1.7653,27.7310,-39.5736,
4.1980,-0.0105,-0.1608,1.0123,-0.0168,0.0476,-0.0046,-0.0102,-0.0001,-0.0010,1.7653,27.7310,-39.5736,
4.2060,-0.0105,-0.1608,1.0123,-0.0019,0.0451,0.0050,-0.0102,-0.0001,-0.0010,1.7653,27.7310,-39.5736,
4.2070,-0.0106,-0.1623,1.0118,-0.0019,0.0451,0.0050,-0.0102,-0.0001,-0.0010,1.7653,27.7310,-39.5736,
4.2080,-0.0106,-0.1623,1.0118,-0.0019,0.0451,0.0050,-0.0136,-0.0001,-0.0013,1.7653,27.7310,-39.5736,
4.2300,-0.0128,-0.1621,1.0111,-0.0019,0.0451,0.0050,-0.0136,-0.0001,-0.0013,1.7653,27.7310,-39.5736,
4.2570,-0.0155,-0.1625,1.0130,-0.0019,0.0451,0.0050,-0.0136,-0.0001,-0.0013,1.7653,27.7310,-39.5736,
4.2620,-0.0155,-0.1625,1.0130,-0.0019,0.0451,0.0050,-0.0145,0.0066,-0.0019,1.7653,27.7310,-39.5736,
4.2630,-0.0155,-0.1625,1.0130,-0.0019,0.0451,0.0050,-0.0145,0.0066,-0.0019,1.8133,27.7239,-39.5803,
4.2660,-0.0155,-0.1625,1.0130,0.0126,0.0575,0.0019,-0.0145,0.0066,-0.0019,1.8133,27.7239,-39.5803,
4.2660,-0.0120,-0.1621,1.0139,0.0126,0.0575,0.0019,-0.0145,0.0066,-0.0019,1.8133,27.7239,-39.5803,
4.3120,-0.0120,-0.1621,1.0139,0.0126,0.0575,0.0019,-0.0075,0.0048,-0.0013,1.8133,27.7239,-39.5803,
4.3140,-0.0111,-0.1599,1.0192,0.0126,0.0575,0.0019,-0.0075,0.0048,-0.0013,1.8133,27.7239,-39.5803,
4.3150,-0.0130,-0.1592,1.0152,0.0126,0.0575,0.0019,-0.0075,0.0048,-0.0013,1.8133,27.7239,-39.5803,
4.3180,-0.0130,-0.1592,1.0152,0.0126,0.0575,0.0019,-0.0075,0.0048,-0.0013,1.8555,27.7114,-39.5679,
4.3440,-0.0143,-0.1601,1.0086,0.0126,0.0575,0.0019,-0.0075,0.0048,-0.0013,1.8555,27.7114,-39.5679,
4.3450,-0.0130,-0.1633,0.9964,0.0126,0.0575,0.0019,-0.0075,0.0048,-0.0013,1.8555,27.7114,-39.5679,
4.3460,-0.0130,-0.1633,0.9964,0.0126,0.0575,0.0019,-0.0221,-0.0135,-0.0022,1.8555,27.7114,-39.5679,
4.3460,-0.0130,-0.1633,0.9964,-0.0158,0.0563,0.0112,-0.0221,-0.0135,-0.0022,1.8555,27.7114,-39.5679,
4.3780,-0.0072,-0.1663,1.0282,-0.0158,0.0563,0.0112,-0.0221,-0.0135,-0.0022,1.8555,27.7114,-39.5679,
4.3800,-0.0072,-0.1663,1.0282,-0.0158,0.0563,0.0112,-0.0228,0.0091,-0.0001,1.8555,27.7114,-39.5679,
4.3970,-0.0082,-0.1654,1.0206,-0.0158,0.0563,0.0112,-0.0228,0.0091,-0.0001,1.8555,27.7114,-39.5679,
4.3990,-0.0082,-0.1654,1.0206,-0.0158,0.0563,0.0112,-0.0228,0.0091,-0.0001,1.8591,27.7205,-39.5836,
4.4020,-0.0082,-0.1654,1.0206,-0.0100,0.0647,-0.0280,-0.0228,0.0091,-0.0001,1.8591,27.7205,-39.5836,
4.4030,-0.0100,-0.1645,1.0018,-0.0100,0.0647,-0.0280,-0.0228,0.0091,-0.0001,1.8591,27.7205,-39.5836,
4.4040,-0.0100,-0.1645,1.0018,-0.0100,0.0647,-0.0280,-0.0023,-0.0050,-0.0001,1.8591,27.7205,-39.5836,
4.4460,-0.0117,-0.1621,1.0222,-0.0100,0.0647,-0.0280,-0.0023,-0.0050,-0.0001,1.8591,27.7205,-39.5836,
4.4480,-0.0138,-0.1567,1.0159,-0.0100,0.0647,-0.0280,-0.0023,-0.0050,-0.0001,1.8591,27.7205,-39.5836,
4.4490,-0.0138,-0.1567,1.0159,-0.0100,0.0647,-0.0280,0.0176,0.0106,0.0033,1.8591,27.7205,-39.5836,
4.4560,-0.0138,-0.1567,1.0159,-0.0100,0.0647,-0.0280,0.0176,0.0106,0.0033,1.9010,27.7102,-39.5964,
4.4800,-0.0144,-0.1513,1.0013,-0.0100,0.0647,-0.0280,0.0176,0.0106,0.0033,1.9010,27.7102,-39.5964,
4.4820,-0.0104,-0.1574,1.0135,-0.0100,0.0647,-0.0280,0.0176,0.0106,0.0033,1.9010,27.7102,-39.5964,
4.4820,-0.0104,-0.1574,1.0135,-0.0100,0.0647,-0.0280,-0.0252,-0.0086,-0.0034,1.9010,27.7102,-39.5964,
4.4830,-0.0104,-0.1574,1.0135,0.0276,0.0224,0.0458,-0.0252,-0.0086,-0.0034,1.9010,27.7102,-39.5964,
4.5110,-0.0110,-0.1668,1.0245,0.0276,0.0224,0.0458,-0.0252,-0.0086,-0.0034,1.9010,27.7102,-39.5964,
4.5160,-0.0110,-0.1668,1.0245,0.0276,0.0224,0.0458,-0.0252,-0.0086,-0.0034,1.9151,27.7061,-39.6392,
4.5390,-0.0110,-0.1668,1.0245,-0.0081,0.1068,0.0050,-0.0252,-0.0086,-0.0034,1.9151,27.7061,-39.6392,
4.5400,-0.0110,-0.1668,1.0245,-0.0081,0.1068,0.0050,-0.0166,0.0051,-0.0040,1.9151,27.7061,-39.6392,
4.5400,-0.0120,-0.1684,1.0153,-0.0081,0.1068,0.0050,-0.0166,0.0051,-0.0040,1.9151,27.7061,-39.6392,
4.5410,-0.0137,-0.1649,1.0119,-0.0081,0.1068,0.0050,-0.0166,0.0051,-0.0040,1.9151,27.7061,-39.6392,
4.5780,-0.0132,-0.1616,1.0144,-0.0081,0.1068,0.0050,-0.0166,0.0051,-0.0040,1.9151,27.7061,-39.6392,
4.5800,-0.0141,-0.1602,1.0111,-0.0081,0.1068,0.0050,-0.0166,0.0051,-0.0040,1.9151,27.7061,-39.6392,
4.5800,-0.0141,-0.1602,1.0111,-0.0081,0.1068,0.0050,-0.0090,0.0048,-0.0046,1.9151,27.7061,-39.6392,
4.5980,-0.0141,-0.1602,1.0111,-0.0081,0.1068,0.0050,-0.0090,0.0048,-0.0046,1.9122,27.7186,-39.6345,
4.6170,-0.0141,-0.1602,1.0111,-0.0031,0.0128,0.0424,-0.0090,0.0048,-0.0046,1.9122,27.7186,-39.6345,
4.6180,-0.0122,-0.1602,1.0100,-0.0031,0.0128,0.0424,-0.0090,0.0048,-0.0046,1.9122,27.7186,-39.6345,
4.6180,-0.0122,-0.1602,1.0100,-0.0031,0.0128,0.0424,-0.0069,0.0008,-0.0010,1.9122,27.7186,-39.6345,
4.6190,-0.0108,-0.1616,1.0142,-0.0031,0.0128,0.0424,-0.0069,0.0008,-0.0010,1.9122,27.7186,-39.6345,
4.6450,-0.0106,-0.1608,1.0148,-0.0031,0.0128,0.0424,-0.0069,0.0008,-0.0010,1.9122,27.7186,-39.6345,
4.6460,-0.0106,-0.1608,1.0148,-0.0031,0.0128,0.0424,-0.0090,-0.0016,0.0006,1.9122,27.7186,-39.6345,
4.6560,-0.0106,-0.1608,1.0148,-0.0031,0.0128,0.0424,-0.0090,-0.0016,0.0006,1.9222,27.7175,-39.6551,
4.6580,-0.0120,-0.1607,1.0142,-0.0031,0.0128,0.0424,-0.0090,-0.0016,0.0006,1.9222,27.7175,-39.6551,
4.6750,-0.0133,-0.1603,1.0144,-0.0031,0.0128,0.0424,-0.0090,-0.0016,0.0006,1.9222,27.7175,-39.6551,
4.6770,-0.0133,-0.1603,1.0144,-0.0031,0.0128,0.0424,-0.0081,-0.0001,-0.0010,1.9222,27.7175,-39.6551,
4.6770,-0.0133,-0.1603,1.0144,-0.0038,0.0624,-0.0038,-0.0081,-0.0001,-0.0010,1.9222,27.7175,-39.6551,
4.7110,-0.0100,-0.1616,1.0111,-0.0038,0.0624,-0.0038,-0.0081,-0.0001,-0.0010,1.9222,27.7175,-39.6551,
4.7170,-0.0100,-0.1616,1.0111,-0.0038,0.0624,-0.0038,-0.0142,-0.0001,-0.0007,1.9222,27.7175,-39.6551,
4.7180,-0.0117,-0.1627,1.0184,-0.0038,0.0624,-0.0038,-0.0142,-0.0001,-0.0007,1.9222,27.7175,-39.6551,
4.7190,-0.0117,-0.1627,1.0184,-0.0038,0.0624,-0.0038,-0.0142,-0.0001,-0.0007,1.9522,27.7153,-39.6575,
4.7540,-0.0117,-0.1627,1.0184,-0.0038,0.0624,-0.0038,-0.0011,0.0039,-0.0016,1.9522,27.7153,-39.6575,
4.7560,-0.0117,-0.1627,1.0184,0.0041,0.0588,0.0171,-0.0011,0.0039,-0.0016,1.9522,27.7153,-39.6575,
4.7560,-0.0132,-0.1611,1.0156,0.0041,0.0588,0.0171,-0.0011,0.0039,-0.0016,1.9522,27.7153,-39.6575,
4.7570,-0.0115,-0.1594,1.0081,0.0041,0.0588,0.0171,-0.0011,0.0039,-0.0016,1.9522,27.7153,-39.6575,
4.7780,-0.0130,-0.1602,1.0136,0.0041,0.0588,0.0171,-0.0011,0.0039,-0.0016,1.9522,27.7153,-39.6575,
4.7990,-0.0130,-0.1602,1.0136,0.0041,0.0588,0.0171,-0.0127,0.0005,-0.0025,1.9522,27.7153,-39.6575,
4.8000,-0.0120,-0.1605,1.0144,0.0041,0.0588,0.0171,-0.0127,0.0005,-0.0025,1.9522,27.7153,-39.6575,
4.8010,-0.0120,-0.1605,1.0144,0.0041,0.0588,0.0171,-0.0127,0.0005,-0.0025,1.8991,27.6944,-39.6551,
4.8120,-0.0120,-0.1605,1.0144,0.0030,0.0572,0.0072,-0.0127,0.0005,-0.0025,1.8991,27.6944,-39.6551,
4.8130,-0.0117,-0.1617,1.0122,0.0030,0.0572,0.0072,-0.0127,0.0005,-0.0025,1.8991,27.6944,-39.6551,
4.8460,-0.0115,-0.1638,1.0119,0.0030,0.0572,0.0072,-0.0127,0.0005,-0.0025,1.8991,27.6944,-39.6551,
4.8470,-0.0115,-0.1638,1.0119,0.0030,0.0572,0.0072,-0.0115,-0.0016,-0.0010,1.8991,27.6944,-39.6551,
4.8910,-0.0115,-0.1638,1.0119,0.0009,0.0601,0.0069,-0.0115,-0.0016,-0.0010,1.8991,27.6944,-39.6551,
4.8920,-0.0115,-0.1638,1.0119,0.0009,0.0601,0.0069,-0.0157,0.0027,-0.0001,1.8991,27.6944,-39.6551,
4.8930,-0.0119,-0.1646,1.0153,0.0009,0.0601,0.0069,-0.0157,0.0027,-0.0001,1.8991,27.6944,-39.6551,
4.8940,-0.0115,-0.1643,1.0128,0.0009,0.0601,0.0069,-0.0157,0.0027,-0.0001,1.8991,27.6944,-39.6551,
4.8940,-0.0136,-0.1617,1.0148,0.0009,0.0601,0.0069,-0.0157,0.0027,-0.0001,1.8991,27.6944,-39.6551,
4.9120,-0.0136,-0.1617,1.0148,0.0009,0.0601,0.0069,-0.0157,0.0027,-0.0001,1.8386,27.7105,-39.6214,
4.9150,-0.0136,-0.1617,1.0148,0.0009,0.0601,0.0069,-0.0173,0.0021,-0.0004,1.8386,27.7105,-39.6214,
4.9150,-0.0132,-0.1607,1.0183,0.0009,0.0601,0.0069,-0.0173,0.0021,-0.0004,1.8386,27.7105,-39.6214,
4.9490,-0.0132,-0.1607,1.0183,-0.0005,0.0411,0.0153,-0.0173,0.0021,-0.0004,1.8386,27.7105,-39.6214,
4.9500,-0.0132,-0.1607,1.0183,-0.0005,0.0411,0.0153,-0.0160,-0.0022,-0.0007,1.8386,27.7105,-39.6214,
4.9510,-0.0132,-0.1617,1.0128,-0.0005,0.0411,0.0153,-0.0160,-0.0022,-0.0007,1.8386,27.7105,-39.6214,
4.9510,-0.0126,-0.1628,1.0144,-0.0005,0.0411,0.0153,-0.0160,-0.0022,-0.0007,1.8386,27.7105,-39.6214,
4.9780,-0.0126,-0.1628,1.0144,-0.0005,0.0411,0.0153,-0.0160,-0.0022,-0.0007,1.8166,27.6689,-39.6479,
4.9790,-0.0127,-0.1635,1.0142,-0.0005,0.0411,0.0153,-0.0160,-0.0022,-0.0007,1.8166,27.6689,-39.6479,
5.0270,-0.0106,-0.1623,1.0120,-0.0005,0.0411,0.0153,-0.0160,-0.0022,-0.0007,1.8166,27.6689,-39.6479,
5.0280,-0.0106,-0.1623,1.0120,-0.0005,0.0411,0.0153,-0.0136,-0.0034,-0.0025,1.8166,27.6689,-39.6479,
5.0280,-0.0106,-0.1614,1.0137,-0.0005,0.0411,0.0153,-0.0136,-0.0034,-0.0025,1.8166,27.6689,-39.6479,
5.0290,-0.0122,-0.1600,1.0147,-0.0005,0.0411,0.0153,-0.0136,-0.0034,-0.0025,1.8166,27.6689,-39.6479,
5.0300,-0.0122,-0.1600,1.0147,-0.0005,0.0411,0.0153,-0.0115,0.0011,-0.0013,1.8166,27.6689,-39.6479,
5.0300,-0.0122,-0.1600,1.0147,-0.0082,0.0579,0.0239,-0.0115,0.0011,-0.0013,1.8166,27.6689,-39.6479,
5.0450,-0.0122,-0.1600,1.0147,-0.0082,0.0579,0.0239,-0.0115,0.0011,-0.0013,1.7405,27.6707,-39.6754,
5.0850,-0.0122,-0.1600,1.0147,-0.0082,0.0579,0.0239,-0.0108,0.0024,-0.0001,1.7405,27.6707,-39.6754,
5.0860,-0.0136,-0.1607,1.0147,-0.0082,0.0579,0.0239,-0.0108,0.0024,-0.0001,1.7405,27.6707,-39.6754,
5.0870,-0.0121,-0.1611,1.0156,-0.0082,0.0579,0.0239,-0.0108,0.0024,-0.0001,1.7405,27.6707,-39.6754,
5.0870,-0.0115,-0.1623,1.0129,-0.0082,0.0579,0.0239,-0.0108,0.0024,-0.0001,1.7405,27.6707,-39.6754,
5.0880,-0.0115,-0.1623,1.0129,0.0085,0.0635,0.0095,-0.0108,0.0024,-0.0001,1.7405,27.6707,-39.6754,
5.1110,-0.0126,-0.1641,1.0126,0.0085,0.0635,0.0095,-0.0108,0.0024,-0.0001,1.7405,27.6707,-39.6754,
5.1120,-0.0126,-0.1641,1.0126,0.0085,0.0635,0.0095,-0.0108,0.0024,-0.0001,1.7746,27.6950,-39.6614,
5.1130,-0.0126,-0.1641,1.0126,0.0085,0.0635,0.0095,-0.0145,0.0033,-0.0004,1.7746,27.6950,-39.6614,
5.1650,-0.0126,-0.1641,1.0126,0.0026,0.0601,0.0141,-0.0145,0.0033,-0.0004,1.7746,27.6950,-39.6614,
5.1680,-0.0126,-0.1641,1.0126,0.0026,0.0601,0.0141,-0.0057,0.0063,-0.0028,1.7746,27.6950,-39.6614,
5.1680,-0.0163,-0.1650,1.0145,0.0026,0.0601,0.0141,-0.0057,0.0063,-0.0028,1.7746,27.6950,-39.6614,
5.1690,-0.0127,-0.1638,1.0142,0.0026,0.0601,0.0141,-0.0057,0.0063,-0.0028,1.7746,27.6950,-39.6614,
5.1690,-0.0114,-0.1622,1.0163,0.0026,0.0601,0.0141,-0.0057,0.0063,-0.0028,1.7746,27.6950,-39.6614,
5.1760,-0.0114,-0.1622,1.0163,0.0026,0.0601,0.0141,-0.0057,0.0063,-0.0028,1.7317,27.6934,-39.6626,
5.2230,-0.0125,-0.1622,1.0190,0.0026,0.0601,0.0141,-0.0057,0.0063,-0.0028,1.7317,27.6934,-39.6626,
5.2250,-0.0141,-0.1634,1.0102,0.0026,0.0601,0.0141,-0.0057,0.0063,-0.0028,1.7317,27.6934,-39.6626,
5.2250,-0.0132,-0.1639,0.9916,0.0026,0.0601,0.0141,-0.0057,0.0063,-0.0028,1.7317,27.6934,-39.6626,
5.2260,-0.0132,-0.1639,0.9916,-0.0126,0.0450,0.0194,-0.0057,0.0063,-0.0028,1.7317,27.6934,-39.6626,
5.2270,-0.0132,-0.1639,0.9916,-0.0126,0.0450,0.0194,-0.0115,-0.0025,-0.0025,1.7317,27.6934,-39.6626,
5.2280,-0.0132,-0.1639,0.9916,-0.0126,0.0450,0.0194,-0.0173,-0.0105,-0.0004,1.7317,27.6934,-39.6626,
5.2440,-0.0065,-0.1677,1.0252,-0.0126,0.0450,0.0194,-0.0173,-0.0105,-0.0004,1.7317,27.6934,-39.6626,
5.2460,-0.0065,-0.1677,1.0252,-0.0126,0.0450,0.0194,-0.0173,-0.0105,-0.0004,1.6994,27.6893,-39.6281,
5.3020,-0.0095,-0.1656,1.0322,-0.0126,0.0450,0.0194,-0.0173,-0.0105,-0.0004,1.6994,27.6893,-39.6281,
5.3050,-0.0095,-0.1656,1.0322,-0.0126,0.0450,0.0194,-0.0066,0.0109,0.0009,1.6994,27.6893,-39.6281,
5.3060,-0.0095,-0.1656,1.0322,-0.0126,0.0450,0.0194,0.0014,-0.0010,0.0009,1.6994,27.6893,-39.6281,
5.3070,-0.0111,-0.1624,0.9965,-0.0126,0.0450,0.0194,0.0014,-0.0010,0.0009,1.6994,27.6893,-39.6281,
5.3080,-0.0126,-0.1611,1.0211,-0.0126,0.0450,0.0194,0.0014,-0.0010,0.0009,1.6994,27.6893,-39.6281,
5.3090,-0.0126,-0.1611,1.0211,0.0015,0.0399,-0.0436,0.0014,-0.0010,0.0009,1.6994,27.6893,-39.6281,
5.3140,-0.0126,-0.1611,1.0211,0.0015,0.0399,-0.0436,0.0014,-0.0010,0.0009,1.6615,27.6922,-39.6096,
5.3590,-0.0126,-0.1611,1.0211,0.0163,0.0464,0.0669,0.0014,-0.0010,0.0009,1.6615,27.6922,-39.6096,
5.3600,-0.0132,-0.1577,1.0191,0.0163,0.0464,0.0669,0.0014,-0.0010,0.0009,1.6615,27.6922,-39.6096,
5.3610,-0.0132,-0.1577,1.0191,0.0163,0.0464,0.0669,0.0029,-0.0034,0.0006,1.6615,27.6922,-39.6096,
5.3610,-0.0132,-0.1524,1.0035,0.0163,0.0464,0.0669,0.0029,-0.0034,0.0006,1.6615,27.6922,-39.6096,
5.3620,-0.0111,-0.1579,1.0135,0.0163,0.0464,0.0669,0.0029,-0.0034,0.0006,1.6615,27.6922,-39.6096,
5.3790,-0.0111,-0.1579,1.0135,0.0163,0.0464,0.0669,-0.0399,-0.0016,-0.0016,1.6615,27.6922,-39.6096,
5.3810,-0.0126,-0.1674,1.0199,0.0163,0.0464,0.0669,-0.0399,-0.0016,-0.0016,1.6615,27.6922,-39.6096,
5.3810,-0.0126,-0.1674,1.0199,0.0163,0.0464,0.0669,-0.0399,-0.0016,-0.0016,1.6336,27.7108,-39.6407,
5.4390,-0.0123,-0.1700,1.0113,0.0163,0.0464,0.0669,-0.0399,-0.0016,-0.0016,1.6336,27.7108,-39.6407,
5.4410,-0.0123,-0.1700,1.0113,0.0163,0.0464,0.0669,-0.0127,0.0036,-0.0019,1.6336,27.7108,-39.6407,
5.4420,-0.0134,-0.1679,1.0144,0.0163,0.0464,0.0669,-0.0127,0.0036,-0.0019,1.6336,27.7108,-39.6407,
5.4430,-0.0152,-0.1643,1.0129,0.0163,0.0464,0.0669,-0.0127,0.0036,-0.0019,1.6336,27.7108,-39.6407,
5.4440,-0.0152,-0.1643,1.0129,-0.0017,0.1047,0.0043,-0.0127,0.0036,-0.0019,1.6336,27.7108,-39.6407,
5.4450,-0.0152,-0.1643,1.0129,-0.0017,0.1047,0.0043,-0.0127,0.0036,-0.0019,1.6563,27.6718,-39.6680,
5.4960,-0.0152,-0.1643,1.0129,-0.0117,0.0112,0.0109,-0.0127,0.0036,-0.0019,1.6563,27.6718,-39.6680,
5.4970,-0.0152,-0.1643,1.0129,-0.0117,0.0112,0.0109,-0.0090,0.0021,-0.0004,1.6563,27.6718,-39.6680,
5.4980,-0.0152,-0.1643,1.0129,-0.0117,0.0112,0.0109,-0.0142,-0.0013,0.0006,1.6563,27.6718,-39.6680,
5.4980,-0.0131,-0.1625,1.0106,-0.0117,0.0112,0.0109,-0.0142,-0.0013,0.0006,1.6563,27.6718,-39.6680,
5.4990,-0.0122,-0.1630,1.0153,-0.0117,0.0112,0.0109,-0.0142,-0.0013,0.0006,1.6563,27.6718,-39.6680,
5.4990,-0.0122,-0.1627,1.0151,-0.0117,0.0112,0.0109,-0.0142,-0.0013,0.0006,1.6563,27.6718,-39.6680,
5.5110,-0.0122,-0.1627,1.0151,-0.0117,0.0112,0.0109,-0.0142,-0.0013,0.0006,1.6441,27.6823,-39.6292,
5.5760,-0.0131,-0.1618,1.0157,-0.0117,0.0112,0.0109,-0.0142,-0.0013,0.0006,1.6441,27.6823,-39.6292,
5.5770,-0.0131,-0.1618,1.0157,-0.0117,0.0112,0.0109,-0.0148,-0.0010,-0.0016,1.6441,27.6823,-39.6292,
5.5780,-0.0131,-0.1618,1.0157,-0.0117,0.0112,0.0109,-0.0255,-0.0031,-0.0019,1.6441,27.6823,-39.6292,
5.5780,-0.0116,-0.1625,1.0141,-0.0117,0.0112,0.0109,-0.0255,-0.0031,-0.0019,1.6441,27.6823,-39.6292,
5.5790,-0.0128,-0.1645,1.0133,-0.0117,0.0112,0.0109,-0.0255,-0.0031,-0.0019,1.6441,27.6823,-39.6292,
5.5800,-0.0108,-0.1651,1.0090,-0.0117,0.0112,0.0109,-0.0255,-0.0031,-0.0019,1.6441,27.6823,-39.6292,
5.5800,-0.0108,-0.1651,1.0090,-0.0038,0.0655,0.0118,-0.0255,-0.0031,-0.0019,1.6441,27.6823,-39.6292,
5.5810,-0.0108,-0.1651,1.0090,-0.0038,0.0655,0.0118,-0.0255,-0.0031,-0.0019,1.6920,27.6645,-39.6415,
5.6330,-0.0108,-0.1651,1.0090,-0.0038,0.0655,0.0118,-0.0166,0.0030,-0.0010,1.6920,27.6645,-39.6415,
5.6340,-0.0101,-0.1649,1.0124,-0.0038,0.0655,0.0118,-0.0166,0.0030,-0.0010,1.6920,27.6645,-39.6415,
5.6350,-0.0127,-0.1641,1.0181,-0.0038,0.0655,0.0118,-0.0166,0.0030,-0.0010,1.6920,27.6645,-39.6415,
5.6350,-0.0111,-0.1623,1.0086,-0.0038,0.0655,0.0118,-0.0166,0.0030,-0.0010,1.6920,27.6645,-39.6415,
5.6360,-0.0111,-0.1623,1.0086,0.0037,0.0587,0.0024,-0.0166,0.0030,-0.0010,1.6920,27.6645,-39.6415,
5.6450,-0.0111,-0.1623,1.0086,0.0037,0.0587,0.0024,-0.0166,0.0030,-0.0010,1.6439,27.6717,-39.6556,
5.7110,-0.0120,-0.1622,1.0169,0.0037,0.0587,0.0024,-0.0166,0.0030,-0.0010,1.6439,27.6717,-39.6556,
5.7130,-0.0120,-0.1622,1.0169,0.0037,0.0587,0.0024,-0.0093,-0.0025,-0.0004,1.6439,27.6717,-39.6556,
5.7140,-0.0120,-0.1622,1.0169,0.0037,0.0587,0.0024,-0.0124,-0.0077,0.0024,1.6439,27.6717,-39.6556,
5.7140,-0.0117,-0.1622,1.0128,0.0037,0.0587,0.0024,-0.0124,-0.0077,0.0024,1.6439,27.6717,-39.6556,
5.7150,-0.0109,-0.1633,1.0118,0.0037,0.0587,0.0024,-0.0124,-0.0077,0.0024,1.6439,27.6717,-39.6556,
5.7160,-0.0115,-0.1661,1.0129,0.0037,0.0587,0.0024,-0.0124,-0.0077,0.0024,1.6439,27.6717,-39.6556,
5.7160,-0.0115,-0.1661,1.0129,0.0037,0.0587,0.0024,-0.0124,-0.0077,0.0024,1.6816,27.7040,-39.6137,
5.7170,-0.0115,-0.1661,1.0129,0.0042,0.0609,0.0090,-0.0124,-0.0077,0.0024,1.6816,27.7040,-39.6137,
5.7700,-0.0119,-0.1667,1.0137,0.0042,0.0609,0.0090,-0.0124,-0.0077,0.0024,1.6816,27.7040,-39.6137,
5.7710,-0.0119,-0.1667,1.0137,0.0042,0.0609,0.0090,-0.0170,-0.0059,0.0018,1.6816,27.7040,-39.6137,
5.7720,-0.0119,-0.1667,1.0137,0.0042,0.0609,0.0090,-0.0096,-0.0050,0.0015,1.6816,27.7040,-39.6137,
5.7720,-0.0119,-0.1667,1.0137,-0.0011,0.0612,0.0088,-0.0096,-0.0050,0.0015,1.6816,27.7040,-39.6137,
5.7730,-0.0119,-0.1669,1.0129,-0.0011,0.0612,0.0088,-0.0096,-0.0050,0.0015,1.6816,27.7040,-39.6137,
5.7740,-0.0109,-0.1656,1.0097,-0.0011,0.0612,0.0088,-0.0096,-0.0050,0.0015,1.6816,27.7040,-39.6137,
5.7780,-0.0109,-0.1656,1.0097,-0.0011,0.0612,0.0088,-0.0096,-0.0050,0.0015,1.7310,27.7156,-39.6241,
5.8450,-0.0109,-0.1656,1.0097,-0.0011,0.0612,0.0088,-0.0118,-0.0031,-0.0001,1.7310,27.7156,-39.6241,
5.8470,-0.0117,-0.1649,1.0106,-0.0011,0.0612,0.0088,-0.0118,-0.0031,-0.0001,1.7310,27.7156,-39.6241,
5.8480,-0.0110,-0.1649,1.0120,-0.0011,0.0612,0.0088,-0.0118,-0.0031,-0.0001,1.7310,27.7156,-39.6241,
5.8490,-0.0115,-0.1655,1.0107,-0.0011,0.0612,0.0088,-0.0118,-0.0031,-0.0001,1.7310,27.7156,-39.6241,
5.8490,-0.0115,-0.1655,1.0107,-0.0011,0.0612,0.0088,-0.0118,-0.0031,-0.0001,1.6956,27.7332,-39.6371,
5.8500,-0.0112,-0.1654,1.0113,-0.0011,0.0612,0.0088,-0.0118,-0.0031,-0.0001,1.6956,27.7332,-39.6371,
5.8510,-0.0112,-0.1654,1.0113,-0.0011,0.0612,0.0088,-0.0084,-0.0019,-0.0019,1.6956,27.7332,-39.6371,
5.8510,-0.0112,-0.1654,1.0113,-0.0031,0.0367,-0.0034,-0.0084,-0.0019,-0.0019,1.6956,27.7332,-39.6371,
5.9060,-0.0112,-0.1654,1.0113,-0.0000,0.0490,-0.0086,-0.0084,-0.0019,-0.0019,1.6956,27.7332,-39.6371,
5.9080,-0.0112,-0.1655,1.0122,-0.0000,0.0490,-0.0086,-0.0084,-0.0019,-0.0019,1.6956,27.7332,-39.6371,
5.9090,-0.0120,-0.1646,1.0133,-0.0000,0.0490,-0.0086,-0.0084,-0.0019,-0.0019,1.6956,27.7332,-39.6371,
5.9100,-0.0110,-0.1638,1.0128,-0.0000,0.0490,-0.0086,-0.0084,-0.0019,-0.0019,1.6956,27.7332,-39.6371,
5.9110,-0.0110,-0.1638,1.0128,-0.0000,0.0490,-0.0086,-0.0099,-0.0007,-0.0016,1.6956,27.7332,-39.6371,
5.9110,-0.0110,-0.1638,1.0128,-0.0000,0.0490,-0.0086,-0.0099,-0.0007,-0.0016,1.6597,27.7410,-39.6507,
5.9800,-0.0108,-0.1645,1.0123,-0.0000,0.0490,-0.0086,-0.0099,-0.0007,-0.0016,1.6597,27.7410,-39.6507,
5.9820,-0.0108,-0.1645,1.0123,-0.0000,0.0490,-0.0086,-0.0108,-0.0001,-0.0019,1.6597,27.7410,-39.6507,
5.9820,-0.0108,-0.1645,1.0123,-0.0000,0.0490,-0.0086,-0.0142,0.0011,-0.0013,1.6597,27.7410,-39.6507,
5.9830,-0.0106,-0.1647,1.0095,-0.0000,0.0490,-0.0086,-0.0142,0.0011,-0.0013,1.6597,27.7410,-39.6507,
5.9840,-0.0104,-0.1650,1.0100,-0.0000,0.0490,-0.0086,-0.0142,0.0011,-0.0013,1.6597,27.7410,-39.6507,
5.9850,-0.0104,-0.1650,1.0100,-0.0000,0.0490,-0.0086,-0.0142,0.0011,-0.0013,1.6003,27.7787,-39.6119,
5.9860,-0.0104,-0.1650,1.0100,0.0014,0.0551,0.0075,-0.0142,0.0011,-0.0013,1.6003,27.7787,-39.6119,
5.9860,-0.0130,-0.1665,1.0137,0.0014,0.0551,0.0075,-0.0142,0.0011,-0.0013,1.6003,27.7787,-39.6119,
6.0440,-0.0133,-0.1656,1.0103,0.0014,0.0551,0.0075,-0.0142,0.0011,-0.0013,1.6003,27.7787,-39.6119,
6.0460,-0.0133,-0.1656,1.0103,0.0014,0.0551,0.0075,-0.0053,0.0045,-0.0007,1.6003,27.7787,-39.6119,
6.0460,-0.0133,-0.1656,1.0103,0.0014,0.0551,0.0075,-0.0194,-0.0031,-0.0010,1.6003,27.7787,-39.6119,
6.0470,-0.0093,-0.1625,1.0135,0.0014,0.0551,0.0075,-0.0194,-0.0031,-0.0010,1.6003,27.7787,-39.6119,
6.0480,-0.0105,-0.1643,1.0161,0.0014,0.0551,0.0075,-0.0194,-0.0031,-0.0010,1.6003,27.7787,-39.6119,
6.0480,-0.0105,-0.1643,1.0161,-0.0008,0.0522,-0.0064,-0.0194,-0.0031,-0.0010,1.6003,27.7787,-39.6119,
6.0490,-0.0105,-0.1643,1.0161,-0.0008,0.0522,-0.0064,-0.0194,-0.0031,-0.0010,1.5895,27.8080,-39.5976,
6.1140,-0.0105,-0.1643,1.0161,-0.0008,0.0522,-0.0064,-0.0194,-0.0031,-0.0010,1.5802,27.8668,-39.5815,
6.1170,-0.0142,-0.1655,1.0169,-0.0008,0.0522,-0.0064,-0.0194,-0.0031,-0.0010,1.5802,27.8668,-39.5815,
6.1180,-0.0142,-0.1655,1.0169,-0.0008,0.0522,-0.0064,-0.0209,-0.0154,0.0015,1.5802,27.8668,-39.5815,
6.1190,-0.0131,-0.1667,1.0006,-0.0008,0.0522,-0.0064,-0.0209,-0.0154,0.0015,1.5802,27.8668,-39.5815,
6.1200,-0.0059,-0.1685,0.9946,-0.0008,0.0522,-0.0064,-0.0209,-0.0154,0.0015,1.5802,27.8668,-39.5815,
6.1210,-0.0059,-0.1685,0.9946,-0.0008,0.0522,-0.0064,-0.0267,0.0152,0.0015,1.5802,27.8668,-39.5815,
6.1220,-0.0049,-0.1713,1.0395,-0.0008,0.0522,-0.0064,-0.0267,0.0152,0.0015,1.5802,27.8668,-39.5815,
6.1230,-0.0049,-0.1713,1.0395,-0.0007,0.0696,0.0245,-0.0267,0.0152,0.0015,1.5802,27.8668,-39.5815,
6.1790,-0.0112,-0.1677,1.0085,-0.0007,0.0696,0.0245,-0.0267,0.0152,0.0015,1.5802,27.8668,-39.5815,
6.1800,-0.0138,-0.1633,0.9988,-0.0007,0.0696,0.0245,-0.0267,0.0152,0.0015,1.5802,27.8668,-39.5815,
6.1810,-0.0138,-0.1633,0.9988,-0.0007,0.0696,0.0245,-0.0011,-0.0044,-0.0013,1.5802,27.8668,-39.5815,
6.1820,-0.0127,-0.1625,1.0210,-0.0007,0.0696,0.0245,-0.0011,-0.0044,-0.0013,1.5802,27.8668,-39.5815,
6.1820,-0.0127,-0.1625,1.0210,-0.0007,0.0696,0.0245,-0.0011,-0.0044,-0.0013,1.5687,27.8867,-39.5549,
6.1830,-0.0127,-0.1625,1.0210,0.0206,0.0284,0.0009,-0.0011,-0.0044,-0.0013,1.5687,27.8867,-39.5549,
6.2440,-0.0127,-0.1625,1.0210,0.0206,0.0284,0.0009,-0.0111,0.0008,0.0024,1.5687,27.8867,-39.5549,
6.2460,-0.0128,-0.1607,1.0103,0.0206,0.0284,0.0009,-0.0111,0.0008,0.0024,1.5687,27.8867,-39.5549,
6.2470,-0.0101,-0.1624,1.0095,0.0206,0.0284,0.0009,-0.0111,0.0008,0.0024,1.5687,27.8867,-39.5549,
6.2470,-0.0112,-0.1685,1.0177,0.0206,0.0284,0.0009,-0.0111,0.0008,0.0024,1.5687,27.8867,-39.5549,
6.2480,-0.0112,-0.1685,1.0177,0.0206,0.0284,0.0009,-0.0362,-0.0004,0.0012,1.5687,27.8867,-39.5549,
6.2480,-0.0112,-0.1685,1.0177,0.0206,0.0284,0.0009,-0.0362,-0.0004,0.0012,1.5685,27.8871,-39.5421,
6.2570,-0.0109,-0.1732,1.0170,0.0206,0.0284,0.0009,-0.0362,-0.0004,0.0012,1.5685,27.8871,-39.5421,
6.2590,-0.0109,-0.1732,1.0170,-0.0142,0.0806,-0.0086,-0.0362,-0.0004,0.0012,1.5685,27.8871,-39.5421,
6.3110,-0.0108,-0.1711,1.0140,-0.0142,0.0806,-0.0086,-0.0362,-0.0004,0.0012,1.5685,27.8871,-39.5421,
6.3120,-0.0108,-0.1711,1.0140,-0.0142,0.0806,-0.0086,-0.0362,-0.0004,0.0012,1.5441,27.8860,-39.5430,
6.3130,-0.0108,-0.1711,1.0140,-0.0142,0.0806,-0.0086,-0.0185,0.0072,-0.0034,1.5441,27.8860,-39.5430,
6.3140,-0.0125,-0.1674,1.0098,-0.0142,0.0806,-0.0086,-0.0185,0.0072,-0.0034,1.5441,27.8860,-39.5430,
6.3140,-0.0139,-0.1658,1.0085,-0.0142,0.0806,-0.0086,-0.0185,0.0072,-0.0034,1.5441,27.8860,-39.5430,
6.3150,-0.0139,-0.1658,1.0085,0.0056,0.0556,0.0184,-0.0185,0.0072,-0.0034,1.5441,27.8860,-39.5430,
6.3160,-0.0139,-0.1658,1.0085,0.0056,0.0556,0.0184,-0.0127,0.0054,-0.0022,1.5441,27.8860,-39.5430,
6.3800,-0.0139,-0.1658,1.0085,0.0056,0.0556,0.0184,-0.0102,0.0030,0.0006,1.5441,27.8860,-39.5430,
6.3820,-0.0139,-0.1658,1.0085,0.0056,0.0556,0.0184,-0.0102,0.0030,0.0006,1.6046,27.8789,-39.5413,
6.3840,-0.0130,-0.1668,1.0118,0.0056,0.0556,0.0184,-0.0102,0.0030,0.0006,1.6046,27.8789,-39.5413,
6.3840,-0.0116,-0.1679,1.0123,0.0056,0.0556,0.0184,-0.0102,0.0030,0.0006,1.6046,27.8789,-39.5413,
6.3850,-0.0115,-0.1667,1.0135,0.0056,0.0556,0.0184,-0.0102,0.0030,0.0006,1.6046,27.8789,-39.5413,
6.3940,-0.0115,-0.1667,1.0135,-0.0079,0.0465,-0.0039,-0.0102,0.0030,0.0006,1.6046,27.8789,-39.5413,
6.3960,-0.0115,-0.1667,1.0135,-0.0079,0.0465,-0.0039,-0.0108,0.0008,-0.0004,1.6046,27.8789,-39.5413,
6.3960,-0.0114,-0.1660,1.0153,-0.0079,0.0465,-0.0039,-0.0108,0.0008,-0.0004,1.6046,27.8789,-39.5413,
6.4450,-0.0114,-0.1660,1.0153,-0.0079,0.0465,-0.0039,-0.0108,0.0008,-0.0004,1.6902,27.8933,-39.5117,
6.4470,-0.0114,-0.1660,1.0153,-0.0079,0.0465,-0.0039,-0.0209,-0.0013,-0.0022,1.6902,27.8933,-39.5117,
6.4480,-0.0130,-0.1643,1.0135,-0.0079,0.0465,-0.0039,-0.0209,-0.0013,-0.0022,1.6902,27.8933,-39.5117,
6.4480,-0.0115,-0.1667,1.0130,-0.0079,0.0465,-0.0039,-0.0209,-0.0013,-0.0022,1.6902,27.8933,-39.5117,
6.4500,-0.0105,-0.1696,1.0036,-0.0079,0.0465,-0.0039,-0.0209,-0.0013,-0.0022,1.6902,27.8933,-39.5117,
6.4510,-0.0105,-0.1696,1.0036,0.0005,0.0659,0.0232,-0.0209,-0.0013,-0.0022,1.6902,27.8933,-39.5117,
6.5130,-0.0105,-0.1685,1.0172,0.0005,0.0659,0.0232,-0.0209,-0.0013,-0.0022,1.6902,27.8933,-39.5117,
6.5150,-0.0133,-0.1680,1.0223,0.0005,0.0659,0.0232,-0.0209,-0.0013,-0.0022,1.6902,27.8933,-39.5117,
6.5160,-0.0116,-0.1658,1.0041,0.0005,0.0659,0.0232,-0.0209,-0.0013,-0.0022,1.6902,27.8933,-39.5117,
6.5170,-0.0116,-0.1658,1.0041,0.0005,0.0659,0.0232,-0.0304,0.0008,-0.0019,1.6902,27.8933,-39.5117,
6.5170,-0.0116,-0.1658,1.0041,0.0005,0.0659,0.0232,-0.0023,0.0042,0.0015,1.6902,27.8933,-39.5117,
6.5180,-0.0116,-0.1658,1.0041,0.0005,0.0659,0.0232,-0.0023,0.0042,0.0015,1.7408,27.9242,-39.5337,
6.5300,-0.0108,-0.1651,1.0173,0.0005,0.0659,0.0232,-0.0023,0.0042,0.0015,1.7408,27.9242,-39.5337,
6.5310,-0.0108,-0.1651,1.0173,0.0041,0.0633,-0.0085,-0.0023,0.0042,0.0015,1.7408,27.9242,-39.5337,
6.5780,-0.0108,-0.1651,1.0173,0.0041,0.0633,-0.0085,-0.0218,-0.0050,0.0018,1.7408,27.9242,-39.5337,
6.5790,-0.0108,-0.1651,1.0173,0.0041,0.0633,-0.0085,-0.0218,-0.0050,0.0018,1.7408,27.9131,-39.5730,
6.5800,-0.0097,-0.1672,1.0157,0.0041,0.0633,-0.0085,-0.0218,-0.0050,0.0018,1.7408,27.9131,-39.5730,
6.5810,-0.0097,-0.1677,1.0141,0.0041,0.0633,-0.0085,-0.0218,-0.0050,0.0018,1.7408,27.9131,-39.5730,
6.5890,-0.0099,-0.1693,1.0102,0.0041,0.0633,-0.0085,-0.0218,-0.0050,0.0018,1.7408,27.9131,-39.5730,
6.5900,-0.0099,-0.1693,1.0102,-0.0039,0.0736,0.0457,-0.0218,-0.0050,0.0018,1.7408,27.9131,-39.5730,
6.5900,-0.0099,-0.1693,1.0102,-0.0039,0.0736,0.0457,-0.0209,-0.0062,-0.0019,1.7408,27.9131,-39.5730,
6.6450,-0.0099,-0.1693,1.0102,-0.0039,0.0736,0.0457,-0.0243,-0.0019,-0.0010,1.7408,27.9131,-39.5730,
6.6470,-0.0099,-0.1693,1.0102,-0.0039,0.0736,0.0457,-0.0243,-0.0019,-0.0010,1.7386,27.8743,-39.5626,
6.6490,-0.0121,-0.1698,1.0109,-0.0039,0.0736,0.0457,-0.0243,-0.0019,-0.0010,1.7386,27.8743,-39.5626,
6.6500,-0.0132,-0.1702,1.0115,-0.0039,0.0736,0.0457,-0.0243,-0.0019,-0.0010,1.7386,27.8743,-39.5626,
6.6660,-0.0132,-0.1702,1.0115,0.0117,0.0664,0.0161,-0.0243,-0.0019,-0.0010,1.7386,27.8743,-39.5626,
6.6680,-0.0132,-0.1702,1.0115,0.0117,0.0664,0.0161,-0.0264,-0.0010,0.0009,1.7386,27.8743,-39.5626,
6.6680,-0.0133,-0.1685,1.0112,0.0117,0.0664,0.0161,-0.0264,-0.0010,0.0009,1.7386,27.8743,-39.5626,
6.6690,-0.0119,-0.1710,1.0109,0.0117,0.0664,0.0161,-0.0264,-0.0010,0.0009,1.7386,27.8743,-39.5626,
6.7100,-0.0110,-0.1710,1.0126,0.0117,0.0664,0.0161,-0.0264,-0.0010,0.0009,1.7386,27.8743,-39.5626,
6.7120,-0.0110,-0.1710,1.0126,0.0117,0.0664,0.0161,-0.0264,-0.0010,0.0009,1.7259,27.8639,-39.5637,
6.7130,-0.0105,-0.1724,1.0096,0.0117,0.0664,0.0161,-0.0264,-0.0010,0.0009,1.7259,27.8639,-39.5637,
6.7130,-0.0105,-0.1724,1.0096,0.0117,0.0664,0.0161,-0.0221,-0.0062,-0.0004,1.7259,27.8639,-39.5637,
6.7240,-0.0105,-0.1724,1.0096,-0.0170,0.0567,0.0037,-0.0221,-0.0062,-0.0004,1.7259,27.8639,-39.5637,
6.7260,-0.0104,-0.1721,1.0095,-0.0170,0.0567,0.0037,-0.0221,-0.0062,-0.0004,1.7259,27.8639,-39.5637,
6.7800,-0.0098,-0.1715,1.0095,-0.0170,0.0567,0.0037,-0.0221,-0.0062,-0.0004,1.7259,27.8639,-39.5637,
6.7830,-0.0098,-0.1715,1.0095,-0.0170,0.0567,0.0037,-0.0191,-0.0028,-0.0013,1.7259,27.8639,-39.5637,
6.7840,-0.0110,-0.1723,1.0115,-0.0170,0.0567,0.0037,-0.0191,-0.0028,-0.0013,1.7259,27.8639,-39.5637,
6.7840,-0.0110,-0.1723,1.0115,-0.0170,0.0567,0.0037,-0.0191,-0.0028,-0.0013,1.7149,27.8936,-39.5365,
6.8040,-0.0106,-0.1711,1.0147,-0.0170,0.0567,0.0037,-0.0191,-0.0028,-0.0013,1.7149,27.8936,-39.5365,
6.8050,-0.0106,-0.1711,1.0147,-0.0170,0.0567,0.0037,-0.0188,0.0005,-0.0013,1.7149,27.8936,-39.5365,
6.8060,-0.0106,-0.1711,1.0147,0.0042,0.0454,-0.0025,-0.0188,0.0005,-0.0013,1.7149,27.8936,-39.5365,
6.8060,-0.0099,-0.1704,1.0113,0.0042,0.0454,-0.0025,-0.0188,0.0005,-0.0013,1.7149,27.8936,-39.5365,
6.8430,-0.0097,-0.1713,1.0104,0.0042,0.0454,-0.0025,-0.0188,0.0005,-0.0013,1.7149,27.8936,-39.5365,
6.8440,-0.0097,-0.1713,1.0104,0.0042,0.0454,-0.0025,-0.0188,0.0005,-0.0013,1.7059,27.9516,-39.5461,
6.8450,-0.0111,-0.1735,1.0137,0.0042,0.0454,-0.0025,-0.0188,0.0005,-0.0013,1.7059,27.9516,-39.5461,
6.8460,-0.0111,-0.1735,1.0137,0.0042,0.0454,-0.0025,-0.0139,-0.0004,0.0003,1.7059,27.9516,-39.5461,
6.8610,-0.0128,-0.1727,1.0115,0.0042,0.0454,-0.0025,-0.0139,-0.0004,0.0003,1.7059,27.9516,-39.5461,
6.8620,-0.0128,-0.1727,1.0115,0.0042,0.0454,-0.0025,-0.0115,0.0021,0.0012,1.7059,27.9516,-39.5461,
6.8620,-0.0128,-0.1727,1.0115,0.0062,0.0501,0.0124,-0.0115,0.0021,0.0012,1.7059,27.9516,-39.5461,
6.9110,-0.0128,-0.1727,1.0115,0.0062,0.0501,0.0124,-0.0124,-0.0019,0.0006,1.7059,27.9516,-39.5461,
6.9120,-0.0109,-0.1705,1.0111,0.0062,0.0501,0.0124,-0.0124,-0.0019,0.0006,1.7059,27.9516,-39.5461,
6.9130,-0.0100,-0.1699,1.0152,0.0062,0.0501,0.0124,-0.0124,-0.0019,0.0006,1.7059,27.9516,-39.5461,
6.9130,-0.0100,-0.1699,1.0152,0.0062,0.0501,0.0124,-0.0124,-0.0019,0.0006,1.6330,27.9810,-39.4441,
6.9400,-0.0128,-0.1693,1.0163,0.0062,0.0501,0.0124,-0.0124,-0.0019,0.0006,1.6330,27.9810,-39.4441,
6.9410,-0.0121,-0.1712,1.0068,0.0062,0.0501,0.0124,-0.0124,-0.0019,0.0006,1.6330,27.9810,-39.4441,
6.9420,-0.0121,-0.1712,1.0068,0.0062,0.0501,0.0124,-0.0292,-0.0181,-0.0004,1.6330,27.9810,-39.4441,
6.9420,-0.0121,-0.1712,1.0068,-0.0085,0.0507,0.0134,-0.0292,-0.0181,-0.0004,1.6330,27.9810,-39.4441,
6.9770,-0.0094,-0.1741,0.9871,-0.0085,0.0507,0.0134,-0.0292,-0.0181,-0.0004,1.6330,27.9810,-39.4441,
6.9790,-0.0094,-0.1741,0.9871,-0.0085,0.0507,0.0134,-0.0292,-0.0181,-0.0004,1.6569,27.9943,-39.3653,
6.9800,-0.0049,-0.1782,1.0271,-0.0085,0.0507,0.0134,-0.0292,-0.0181,-0.0004,1.6569,27.9943,-39.3653,
6.9810,-0.0049,-0.1782,1.0271,-0.0085,0.0507,0.0134,-0.0383,0.0079,0.0027,1.6569,27.9943,-39.3653,
6.9990,-0.0084,-0.1766,1.0221,-0.0085,0.0507,0.0134,-0.0383,0.0079,0.0027,1.6569,27.9943,-39.3653,
7.0000,-0.0084,-0.1766,1.0221,-0.0087,0.0791,0.0171,-0.0383,0.0079,0.0027,1.6569,27.9943,-39.3653,
7.0430,-0.0084,-0.1766,1.0221,-0.0087,0.0791,0.0171,-0.0383,0.0079,0.0027,1.6691,27.9949,-39.3648,
7.0450,-0.0084,-0.1766,1.0221,-0.0087,0.0791,0.0171,-0.0118,-0.0037,0.0009,1.6691,27.9949,-39.3648,
7.0450,-0.0117,-0.1741,0.9943,-0.0087,0.0791,0.0171,-0.0118,-0.0037,0.0009,1.6691,27.9949,-39.3648,
7.0460,-0.0123,-0.1723,1.0142,-0.0087,0.0791,0.0171,-0.0118,-0.0037,0.0009,1.6691,27.9949,-39.3648,
7.0770,-0.0123,-0.1723,1.0142,-0.0087,0.0791,0.0171,-0.0099,0.0066,0.0021,1.6691,27.9949,-39.3648,
7.0780,-0.0123,-0.1699,1.0139,-0.0087,0.0791,0.0171,-0.0099,0.0066,0.0021,1.6691,27.9949,-39.3648,
7.0790,-0.0123,-0.1699,1.0139,0.0241,0.0291,-0.0123,-0.0099,0.0066,0.0021,1.6691,27.9949,-39.3648,
7.0800,-0.0122,-0.1676,1.0086,0.0241,0.0291,-0.0123,-0.0099,0.0066,0.0021,1.6691,27.9949,-39.3648,
7.1110,-0.0103,-0.1737,1.0151,0.0241,0.0291,-0.0123,-0.0099,0.0066,0.0021,1.6691,27.9949,-39.3648,
7.1140,-0.0103,-0.1737,1.0151,0.0241,0.0291,-0.0123,-0.0414,-0.0013,0.0009,1.6691,27.9949,-39.3648,
7.1140,-0.0103,-0.1737,1.0151,0.0241,0.0291,-0.0123,-0.0414,-0.0013,0.0009,1.6698,28.0263,-39.2986,
7.1350,-0.0103,-0.1737,1.0151,-0.0137,0.0973,0.0050,-0.0414,-0.0013,0.0009,1.6698,28.0263,-39.2986,
7.1370,-0.0099,-0.1794,1.0125,-0.0137,0.0973,0.0050,-0.0414,-0.0013,0.0009,1.6698,28.0263,-39.2986,
7.1380,-0.0099,-0.1794,1.0125,-0.0137,0.0973,0.0050,-0.0322,0.0048,-0.0025,1.6698,28.0263,-39.2986,
7.1380,-0.0103,-0.1807,1.0141,-0.0137,0.0973,0.0050,-0.0322,0.0048,-0.0025,1.6698,28.0263,-39.2986,
7.1770,-0.0103,-0.1807,1.0141,-0.0137,0.0973,0.0050,-0.0322,0.0048,-0.0025,1.7094,28.1093,-39.2022,
7.1790,-0.0103,-0.1807,1.0141,-0.0137,0.0973,0.0050,-0.0176,0.0082,-0.0016,1.7094,28.1093,-39.2022,
7.1790,-0.0109,-0.1788,1.0137,-0.0137,0.0973,0.0050,-0.0176,0.0082,-0.0016,1.7094,28.1093,-39.2022,
7.1800,-0.0132,-0.1762,1.0082,-0.0137,0.0973,0.0050,-0.0176,0.0082,-0.0016,1.7094,28.1093,-39.2022,
7.2120,-0.0131,-0.1766,1.0130,-0.0137,0.0973,0.0050,-0.0176,0.0082,-0.0016,1.7094,28.1093,-39.2022,
7.2140,-0.0131,-0.1766,1.0130,-0.0137,0.0973,0.0050,-0.0148,0.0036,0.0006,1.7094,28.1093,-39.2022,
7.2140,-0.0111,-0.1751,1.0126,-0.0137,0.0973,0.0050,-0.0148,0.0036,0.0006,1.7094,28.1093,-39.2022,
7.2150,-0.0111,-0.1751,1.0126,0.0099,0.0276,0.0378,-0.0148,0.0036,0.0006,1.7094,28.1093,-39.2022,
7.2440,-0.0111,-0.1751,1.0126,0.0099,0.0276,0.0378,-0.0148,0.0036,0.0006,1.7967,28.1638,-39.1443,
7.2460,-0.0099,-0.1749,1.0124,0.0099,0.0276,0.0378,-0.0148,0.0036,0.0006,1.7967,28.1638,-39.1443,
7.2720,-0.0099,-0.1749,1.0124,0.0099,0.0276,0.0378,-0.0130,-0.0022,-0.0004,1.7967,28.1638,-39.1443,
7.2730,-0.0110,-0.1756,1.0147,0.0099,0.0276,0.0378,-0.0130,-0.0022,-0.0004,1.7967,28.1638,-39.1443,
7.2740,-0.0115,-0.1740,1.0145,0.0099,0.0276,0.0378,-0.0130,-0.0022,-0.0004,1.7967,28.1638,-39.1443,
7.2740,-0.0115,-0.1740,1.0145,-0.0117,0.0497,0.0146,-0.0130,-0.0022,-0.0004,1.7967,28.1638,-39.1443,
7.3110,-0.0115,-0.1740,1.0145,-0.0117,0.0497,0.0146,-0.0157,-0.0050,-0.0016,1.7967,28.1638,-39.1443,
7.3120,-0.0115,-0.1740,1.0145,-0.0117,0.0497,0.0146,-0.0157,-0.0050,-0.0016,1.8605,28.2148,-39.1646,
7.3130,-0.0127,-0.1740,1.0106,-0.0117,0.0497,0.0146,-0.0157,-0.0050,-0.0016,1.8605,28.2148,-39.1646,
7.3130,-0.0108,-0.1757,1.0046,-0.0117,0.0497,0.0146,-0.0157,-0.0050,-0.0016,1.8605,28.2148,-39.1646,
7.3490,-0.0082,-0.1788,1.0054,-0.0117,0.0497,0.0146,-0.0157,-0.0050,-0.0016,1.8605,28.2148,-39.1646,
7.3500,-0.0092,-0.1799,1.0214,-0.0117,0.0497,0.0146,-0.0157,-0.0050,-0.0016,1.8605,28.2148,-39.1646,
7.3510,-0.0092,-0.1799,1.0214,-0.0117,0.0497,0.0146,-0.0356,-0.0031,-0.0028,1.8605,28.2148,-39.1646,
7.3520,-0.0092,-0.1799,1.0214,0.0001,0.0745,0.0338,-0.0356,-0.0031,-0.0028,1.8605,28.2148,-39.1646,
7.3780,-0.0092,-0.1799,1.0214,0.0001,0.0745,0.0338,-0.0057,0.0057,0.0027,1.8605,28.2148,-39.1646,
7.3800,-0.0099,-0.1768,1.0002,0.0001,0.0745,0.0338,-0.0057,0.0057,0.0027,1.8605,28.2148,-39.1646,
7.3810,-0.0099,-0.1768,1.0002,0.0001,0.0745,0.0338,-0.0057,0.0057,0.0027,1.8607,28.2144,-39.1775,
7.4080,-0.0099,-0.1768,1.0002,0.0117,0.0512,0.0024,-0.0057,0.0057,0.0027,1.8607,28.2144,-39.1775,
7.4090,-0.0099,-0.1768,1.0002,0.0117,0.0512,0.0024,-0.0283,0.0024,0.0036,1.8607,28.2144,-39.1775,
7.4100,-0.0111,-0.1757,1.0091,0.0117,0.0512,0.0024,-0.0283,0.0024,0.0036,1.8607,28.2144,-39.1775,
7.4100,-0.0110,-0.1776,1.0142,0.0117,0.0512,0.0024,-0.0283,0.0024,0.0036,1.8607,28.2144,-39.1775,
7.4440,-0.0110,-0.1776,1.0142,0.0117,0.0512,0.0024,-0.0283,0.0024,0.0036,1.9850,28.2583,-39.1961,
7.4460,-0.0106,-0.1784,1.0161,0.0117,0.0512,0.0024,-0.0283,0.0024,0.0036,1.9850,28.2583,-39.1961,
7.4860,-0.0117,-0.1812,1.0078,0.0117,0.0512,0.0024,-0.0283,0.0024,0.0036,1.9850,28.2583,-39.1961,
7.4870,-0.0117,-0.1812,1.0078,-0.0006,0.0673,-0.0034,-0.0283,0.0024,0.0036,1.9850,28.2583,-39.1961,
7.4880,-0.0117,-0.1812,1.0078,-0.0006,0.0673,-0.0034,-0.0258,-0.0092,0.0003,1.9850,28.2583,-39.1961,
7.4890,-0.0117,-0.1812,1.0078,-0.0006,0.0673,-0.0034,-0.0246,-0.0037,-0.0001,1.9850,28.2583,-39.1961,
7.4890,-0.0114,-0.1823,1.0157,-0.0006,0.0673,-0.0034,-0.0246,-0.0037,-0.0001,1.9850,28.2583,-39.1961,
7.4900,-0.0108,-0.1805,1.0120,-0.0006,0.0673,-0.0034,-0.0246,-0.0037,-0.0001,1.9850,28.2583,-39.1961,
7.5110,-0.0108,-0.1805,1.0120,-0.0006,0.0673,-0.0034,-0.0246,-0.0037,-0.0001,1.9749,28.2970,-39.1940,
7.5150,-0.0110,-0.1794,1.0085,-0.0006,0.0673,-0.0034,-0.0246,-0.0037,-0.0001,1.9749,28.2970,-39.1940,
7.5440,-0.0115,-0.1792,1.0112,-0.0006,0.0673,-0.0034,-0.0246,-0.0037,-0.0001,1.9749,28.2970,-39.1940,
7.5460,-0.0115,-0.1792,1.0112,-0.0006,0.0673,-0.0034,-0.0209,-0.0047,0.0012,1.9749,28.2970,-39.1940,
7.5460,-0.0122,-0.1785,1.0081,-0.0006,0.0673,-0.0034,-0.0209,-0.0047,0.0012,1.9749,28.2970,-39.1940,
7.5470,-0.0122,-0.1785,1.0081,-0.0079,0.0373,0.0243,-0.0209,-0.0047,0.0012,1.9749,28.2970,-39.1940,
7.5780,-0.0122,-0.1785,1.0081,-0.0079,0.0373,0.0243,-0.0209,-0.0047,0.0012,2.0019,28.3582,-39.1507,
7.5810,-0.0122,-0.1785,1.0081,-0.0079,0.0373,0.0243,-0.0234,-0.0071,0.0024,2.0019,28.3582,-39.1507,
7.5810,-0.0109,-0.1792,1.0100,-0.0079,0.0373,0.0243,-0.0234,-0.0071,0.0024,2.0019,28.3582,-39.1507,
7.6230,-0.0101,-0.1804,1.0113,-0.0079,0.0373,0.0243,-0.0234,-0.0071,0.0024,2.0019,28.3582,-39.1507,
7.6240,-0.0101,-0.1804,1.0113,-0.0079,0.0373,0.0243,-0.0221,-0.0099,0.0015,2.0019,28.3582,-39.1507,
7.6250,-0.0101,-0.1804,1.0113,-0.0146,0.0641,-0.0018,-0.0221,-0.0099,0.0015,2.0019,28.3582,-39.1507,
7.6250,-0.0109,-0.1810,1.0124,-0.0146,0.0641,-0.0018,-0.0221,-0.0099,0.0015,2.0019,28.3582,-39.1507,
7.6260,-0.0098,-0.1805,1.0117,-0.0146,0.0641,-0.0018,-0.0221,-0.0099,0.0015,2.0019,28.3582,-39.1507,
7.6440,-0.0087,-0.1787,1.0134,-0.0146,0.0641,-0.0018,-0.0221,-0.0099,0.0015,2.0019,28.3582,-39.1507,
7.6450,-0.0087,-0.1787,1.0134,-0.0146,0.0641,-0.0018,-0.0221,-0.0099,0.0015,2.0295,28.4178,-39.1589,
7.6460,-0.0087,-0.1787,1.0134,-0.0146,0.0641,-0.0018,-0.0234,-0.0059,0.0012,2.0295,28.4178,-39.1589,
7.6810,-0.0082,-0.1792,1.0091,-0.0146,0.0641,-0.0018,-0.0234,-0.0059,0.0012,2.0295,28.4178,-39.1589,
7.6830,-0.0082,-0.1792,1.0091,-0.0146,0.0641,-0.0018,-0.0273,-0.0016,0.0009,2.0295,28.4178,-39.1589,
7.6840,-0.0089,-0.1807,1.0076,-0.0146,0.0641,-0.0018,-0.0273,-0.0016,0.0009,2.0295,28.4178,-39.1589,
7.6850,-0.0089,-0.1807,1.0076,-0.0045,0.0606,0.0233,-0.0273,-0.0016,0.0009,2.0295,28.4178,-39.1589,
7.7110,-0.0082,-0.1832,1.0057,-0.0045,0.0606,0.0233,-0.0273,-0.0016,0.0009,2.0295,28.4178,-39.1589,
7.7140,-0.0082,-0.1832,1.0057,-0.0045,0.0606,0.0233,-0.0273,-0.0016,0.0009,2.0567,28.4562,-39.2198,
7.7590,-0.0086,-0.1858,1.0107,-0.0045,0.0606,0.0233,-0.0273,-0.0016,0.0009,2.0567,28.4562,-39.2198,
7.7610,-0.0086,-0.1858,1.0107,-0.0045,0.0606,0.0233,-0.0353,0.0039,0.0012,2.0567,28.4562,-39.2198,
7.7610,-0.0086,-0.1858,1.0107,0.0151,0.0767,0.0067,-0.0353,0.0039,0.0012,2.0567,28.4562,-39.2198,
7.7620,-0.0116,-0.1862,1.0109,0.0151,0.0767,0.0067,-0.0353,0.0039,0.0012,2.0567,28.4562,-39.2198,
7.7620,-0.0112,-0.1834,1.0068,0.0151,0.0767,0.0067,-0.0353,0.0039,0.0012,2.0567,28.4562,-39.2198,
7.7630,-0.0112,-0.1834,1.0068,0.0151,0.0767,0.0067,-0.0246,0.0048,0.0006,2.0567,28.4562,-39.2198,
7.7770,-0.0112,-0.1834,1.0068,0.0151,0.0767,0.0067,-0.0246,0.0048,0.0006,2.0239,28.5229,-39.2297,
7.7800,-0.0106,-0.1851,1.0229,0.0151,0.0767,0.0067,-0.0246,0.0048,0.0006,2.0239,28.5229,-39.2297,
7.8180,-0.0106,-0.1851,1.0229,0.0151,0.0767,0.0067,-0.0237,-0.0013,-0.0013,2.0239,28.5229,-39.2297,
7.8190,-0.0127,-0.1828,1.0113,0.0151,0.0767,0.0067,-0.0237,-0.0013,-0.0013,2.0239,28.5229,-39.2297,
7.8200,-0.0115,-0.1842,1.0036,0.0151,0.0767,0.0067,-0.0237,-0.0013,-0.0013,2.0239,28.5229,-39.2297,
7.8200,-0.0115,-0.1842,1.0036,-0.0051,0.0395,-0.0004,-0.0237,-0.0013,-0.0013,2.0239,28.5229,-39.2297,
7.8440,-0.0067,-0.1864,0.9891,-0.0051,0.0395,-0.0004,-0.0237,-0.0013,-0.0013,2.0239,28.5229,-39.2297,
7.8460,-0.0067,-0.1864,0.9891,-0.0051,0.0395,-0.0004,-0.0237,-0.0013,-0.0013,1.9987,28.5128,-39.2055,
7.8500,-0.0067,-0.1864,0.9891,-0.0051,0.0395,-0.0004,-0.0322,-0.0086,-0.0001,1.9987,28.5128,-39.2055,
7.8960,-0.0048,-0.1897,1.0278,-0.0051,0.0395,-0.0004,-0.0322,-0.0086,-0.0001,1.9987,28.5128,-39.2055,
7.8980,-0.0048,-0.1897,1.0278,-0.0051,0.0395,-0.0004,-0.0127,0.0121,0.0009,1.9987,28.5128,-39.2055,
7.8990,-0.0048,-0.1897,1.0278,-0.0103,0.0525,0.0040,-0.0127,0.0121,0.0009,1.9987,28.5128,-39.2055,
7.9000,-0.0066,-0.1854,1.0082,-0.0103,0.0525,0.0040,-0.0127,0.0121,0.0009,1.9987,28.5128,-39.2055,
7.9000,-0.0120,-0.1845,0.9982,-0.0103,0.0525,0.0040,-0.0127,0.0121,0.0009,1.9987,28.5128,-39.2055,
7.9110,-0.0120,-0.1845,0.9982,-0.0103,0.0525,0.0040,-0.0127,0.0121,0.0009,2.0137,28.5951,-39.0971,
7.9560,-0.0120,-0.1845,0.9982,0.0325,0.0406,0.0035,-0.0127,0.0121,0.0009,2.0137,28.5951,-39.0971,
7.9570,-0.0120,-0.1845,0.9982,0.0325,0.0406,0.0035,-0.0115,0.0109,0.0003,2.0137,28.5951,-39.0971,
7.9580,-0.0120,-0.1845,0.9982,0.0325,0.0406,0.0035,-0.0286,0.0024,0.0021,2.0137,28.5951,-39.0971,
7.9590,-0.0104,-0.1809,1.0140,0.0325,0.0406,0.0035,-0.0286,0.0024,0.0021,2.0137,28.5951,-39.0971,
7.9590,-0.0094,-0.1768,1.0100,0.0325,0.0406,0.0035,-0.0286,0.0024,0.0021,2.0137,28.5951,-39.0971,
7.9590,-0.0089,-0.1777,1.0007,0.0325,0.0406,0.0035,-0.0286,0.0024,0.0021,2.0137,28.5951,-39.0971,
7.9770,-0.0089,-0.1777,1.0007,0.0325,0.0406,0.0035,-0.0286,0.0024,0.0021,1.9931,28.6509,-39.1585,
7.9790,-0.0115,-0.1865,1.0152,0.0325,0.0406,0.0035,-0.0286,0.0024,0.0021,1.9931,28.6509,-39.1585,
8.0330,-0.0115,-0.1865,1.0152,0.0325,0.0406,0.0035,-0.0417,0.0091,-0.0016,1.9931,28.6509,-39.1585,
8.0350,-0.0093,-0.1915,1.0092,0.0325,0.0406,0.0035,-0.0417,0.0091,-0.0016,1.9931,28.6509,-39.1585,
8.0360,-0.0110,-0.1945,1.0052,0.0325,0.0406,0.0035,-0.0417,0.0091,-0.0016,1.9931,28.6509,-39.1585,
8.0370,-0.0123,-0.1916,1.0133,0.0325,0.0406,0.0035,-0.0417,0.0091,-0.0016,1.9931,28.6509,-39.1585,
8.0370,-0.0123,-0.1916,1.0133,0.0325,0.0406,0.0035,-0.0264,0.0072,-0.0013,1.9931,28.6509,-39.1585,
8.0390,-0.0123,-0.1916,1.0133,0.0105,0.1189,0.0082,-0.0264,0.0072,-0.0013,1.9931,28.6509,-39.1585,
8.0440,-0.0123,-0.1916,1.0133,0.0105,0.1189,0.0082,-0.0264,0.0072,-0.0013,1.9844,28.7305,-39.1025,
8.0930,-0.0125,-0.1887,1.0074,0.0105,0.1189,0.0082,-0.0264,0.0072,-0.0013,1.9844,28.7305,-39.1025,
8.0950,-0.0125,-0.1887,1.0074,0.0105,0.1189,0.0082,-0.0145,0.0054,0.0012,1.9844,28.7305,-39.1025,
8.0960,-0.0114,-0.1875,1.0079,0.0105,0.1189,0.0082,-0.0145,0.0054,0.0012,1.9844,28.7305,-39.1025,
8.0960,-0.0122,-0.1861,1.0030,0.0105,0.1189,0.0082,-0.0145,0.0054,0.0012,1.9844,28.7305,-39.1025,
8.0970,-0.0122,-0.1861,1.0030,0.0012,0.0058,0.0251,-0.0145,0.0054,0.0012,1.9844,28.7305,-39.1025,
8.1110,-0.0122,-0.1861,1.0030,0.0012,0.0058,0.0251,-0.0240,-0.0013,0.0003,1.9844,28.7305,-39.1025,
8.1130,-0.0117,-0.1877,1.0056,0.0012,0.0058,0.0251,-0.0240,-0.0013,0.0003,1.9844,28.7305,-39.1025,
8.1140,-0.0117,-0.1877,1.0056,0.0012,0.0058,0.0251,-0.0240,-0.0013,0.0003,1.9990,28.7916,-39.0468,
8.1710,-0.0117,-0.1877,1.0056,-0.0098,0.0580,-0.0194,-0.0240,-0.0013,0.0003,1.9990,28.7916,-39.0468,
8.1730,-0.0110,-0.1882,1.0141,-0.0098,0.0580,-0.0194,-0.0240,-0.0013,0.0003,1.9990,28.7916,-39.0468,
8.1740,-0.0110,-0.1882,1.0141,-0.0098,0.0580,-0.0194,-0.0197,-0.0034,-0.0007,1.9990,28.7916,-39.0468,
8.1750,-0.0125,-0.1870,1.0135,-0.0098,0.0580,-0.0194,-0.0197,-0.0034,-0.0007,1.9990,28.7916,-39.0468,
8.1760,-0.0139,-0.1849,1.0010,-0.0098,0.0580,-0.0194,-0.0197,-0.0034,-0.0007,1.9990,28.7916,-39.0468,
8.1780,-0.0139,-0.1849,1.0010,-0.0098,0.0580,-0.0194,-0.0197,-0.0034,-0.0007,2.0619,28.8450,-38.9899,
8.2300,-0.0139,-0.1849,1.0010,-0.0099,0.0704,0.0207,-0.0197,-0.0034,-0.0007,2.0619,28.8450,-38.9899,
8.2330,-0.0139,-0.1849,1.0010,-0.0099,0.0704,0.0207,-0.0283,-0.0016,-0.0028,2.0619,28.8450,-38.9899,
8.2340,-0.0123,-0.1873,1.0050,-0.0099,0.0704,0.0207,-0.0283,-0.0016,-0.0028,2.0619,28.8450,-38.9899,
8.2350,-0.0123,-0.1873,1.0050,-0.0099,0.0704,0.0207,-0.0234,0.0039,-0.0010,2.0619,28.8450,-38.9899,
8.2350,-0.0076,-0.1921,1.0107,-0.0099,0.0704,0.0207,-0.0234,0.0039,-0.0010,2.0619,28.8450,-38.9899,
8.2360,-0.0082,-0.1910,1.0106,-0.0099,0.0704,0.0207,-0.0234,0.0039,-0.0010,2.0619,28.8450,-38.9899,
8.2440,-0.0082,-0.1910,1.0106,-0.0099,0.0704,0.0207,-0.0234,0.0039,-0.0010,2.1106,28.8586,-38.9360,
8.3080,-0.0082,-0.1910,1.0106,0.0162,0.0621,0.0030,-0.0234,0.0039,-0.0010,2.1106,28.8586,-38.9360,
8.3110,-0.0082,-0.1910,1.0106,0.0162,0.0621,0.0030,-0.0286,0.0088,0.0003,2.1106,28.8586,-38.9360,
8.3120,-0.0082,-0.1910,1.0106,0.0162,0.0621,0.0030,-0.0432,-0.0041,-0.0013,2.1106,28.8586,-38.9360,
8.3130,-0.0109,-0.1865,0.9991,0.0162,0.0621,0.0030,-0.0432,-0.0041,-0.0013,2.1106,28.8586,-38.9360,
8.3140,-0.0106,-0.1873,1.0073,0.0162,0.0621,0.0030,-0.0432,-0.0041,-0.0013,2.1106,28.8586,-38.9360,
8.3140,-0.0111,-0.1889,1.0070,0.0162,0.0621,0.0030,-0.0432,-0.0041,-0.0013,2.1106,28.8586,-38.9360,
8.3150,-0.0108,-0.1911,1.0164,0.0162,0.0621,0.0030,-0.0432,-0.0041,-0.0013,2.1106,28.8586,-38.9360,
8.3160,-0.0108,-0.1911,1.0164,0.0162,0.0621,0.0030,-0.0432,-0.0041,-0.0013,2.1345,28.8719,-38.8572,
8.3660,-0.0108,-0.1911,1.0164,-0.0016,0.0803,0.0196,-0.0432,-0.0041,-0.0013,2.1345,28.8719,-38.8572,
8.3680,-0.0108,-0.1911,1.0164,-0.0016,0.0803,0.0196,-0.0249,-0.0071,0.0012,2.1345,28.8719,-38.8572,
8.3680,-0.0115,-0.1942,1.0089,-0.0016,0.0803,0.0196,-0.0249,-0.0071,0.0012,2.1345,28.8719,-38.8572,
8.3690,-0.0111,-0.1953,1.0050,-0.0016,0.0803,0.0196,-0.0249,-0.0071,0.0012,2.1345,28.8719,-38.8572,
8.3700,-0.0116,-0.1956,1.0095,-0.0016,0.0803,0.0196,-0.0249,-0.0071,0.0012,2.1345,28.8719,-38.8572,
8.3770,-0.0116,-0.1956,1.0095,-0.0016,0.0803,0.0196,-0.0249,-0.0071,0.0012,2.1249,28.9315,-38.8153,
8.4430,-0.0116,-0.1956,1.0095,-0.0082,0.0264,0.0118,-0.0249,-0.0071,0.0012,2.1249,28.9315,-38.8153,
8.4450,-0.0116,-0.1956,1.0095,-0.0082,0.0264,0.0118,-0.0234,-0.0083,-0.0001,2.1249,28.9315,-38.8153,
8.4450,-0.0116,-0.1956,1.0095,-0.0082,0.0264,0.0118,-0.0118,-0.0053,-0.0001,2.1249,28.9315,-38.8153,
8.4460,-0.0108,-0.1932,1.0078,-0.0082,0.0264,0.0118,-0.0118,-0.0053,-0.0001,2.1249,28.9315,-38.8153,
8.4470,-0.0108,-0.1932,1.0050,-0.0082,0.0264,0.0118,-0.0118,-0.0053,-0.0001,2.1249,28.9315,-38.8153,
8.4470,-0.0115,-0.1911,1.0054,-0.0082,0.0264,0.0118,-0.0118,-0.0053,-0.0001,2.1249,28.9315,-38.8153,
8.4480,-0.0095,-0.1902,1.0068,-0.0082,0.0264,0.0118,-0.0118,-0.0053,-0.0001,2.1249,28.9315,-38.8153,
8.4480,-0.0095,-0.1902,1.0068,-0.0082,0.0264,0.0118,-0.0118,-0.0053,-0.0001,2.0879,28.9196,-38.8302,
8.5030,-0.0103,-0.1912,1.0059,-0.0082,0.0264,0.0118,-0.0118,-0.0053,-0.0001,2.0879,28.9196,-38.8302,
8.5050,-0.0108,-0.1928,1.0122,-0.0082,0.0264,0.0118,-0.0118,-0.0053,-0.0001,2.0879,28.9196,-38.8302,
8.5060,-0.0101,-0.1934,1.0053,-0.0082,0.0264,0.0118,-0.0118,-0.0053,-0.0001,2.0879,28.9196,-38.8302,
8.5070,-0.0101,-0.1934,1.0053,-0.0082,0.0264,0.0118,-0.0249,-0.0028,-0.0007,2.0879,28.9196,-38.8302,
8.5080,-0.0101,-0.1934,1.0053,-0.0082,0.0264,0.0118,-0.0209,-0.0001,-0.0007,2.0879,28.9196,-38.8302,
8.5090,-0.0101,-0.1934,1.0053,-0.0020,0.0647,-0.0055,-0.0209,-0.0001,-0.0007,2.0879,28.9196,-38.8302,
8.5100,-0.0101,-0.1934,1.0053,-0.0020,0.0647,-0.0055,-0.0209,-0.0001,-0.0007,2.0517,28.9392,-38.7788,
8.5790,-0.0101,-0.1934,1.0053,-0.0020,0.0647,-0.0055,-0.0209,-0.0001,-0.0007,1.9933,28.9746,-38.8172,
8.5810,-0.0106,-0.1928,1.0087,-0.0020,0.0647,-0.0055,-0.0209,-0.0001,-0.0007,1.9933,28.9746,-38.8172,
8.5810,-0.0092,-0.1933,1.0112,-0.0020,0.0647,-0.0055,-0.0209,-0.0001,-0.0007,1.9933,28.9746,-38.8172,
8.5820,-0.0099,-0.1937,1.0029,-0.0020,0.0647,-0.0055,-0.0209,-0.0001,-0.0007,1.9933,28.9746,-38.8172,
8.5830,-0.0099,-0.1937,1.0029,-0.0020,0.0647,-0.0055,-0.0206,-0.0010,-0.0022,1.9933,28.9746,-38.8172,
8.5830,-0.0099,-0.1937,1.0029,-0.0006,0.0618,0.0122,-0.0206,-0.0010,-0.0022,1.9933,28.9746,-38.8172,
8.5840,-0.0099,-0.1937,1.0029,-0.0006,0.0618,0.0122,-0.0185,-0.0001,-0.0007,1.9933,28.9746,-38.8172,
8.5840,-0.0089,-0.1943,1.0064,-0.0006,0.0618,0.0122,-0.0185,-0.0001,-0.0007,1.9933,28.9746,-38.8172,
8.6370,-0.0089,-0.1943,1.0064,-0.0006,0.0618,0.0122,-0.0200,0.0011,-0.0016,1.9933,28.9746,-38.8172,
8.6380,-0.0078,-0.1955,1.0064,-0.0006,0.0618,0.0122,-0.0200,0.0011,-0.0016,1.9933,28.9746,-38.8172,
8.6390,-0.0098,-0.1975,1.0013,-0.0006,0.0618,0.0122,-0.0200,0.0011,-0.0016,1.9933,28.9746,-38.8172,
8.6390,-0.0130,-0.1966,0.9975,-0.0006,0.0618,0.0122,-0.0200,0.0011,-0.0016,1.9933,28.9746,-38.8172,
8.6400,-0.0130,-0.1966,0.9975,0.0083,0.0595,0.0138,-0.0200,0.0011,-0.0016,1.9933,28.9746,-38.8172,
8.6440,-0.0130,-0.1966,0.9975,0.0083,0.0595,0.0138,-0.0200,0.0011,-0.0016,1.9569,28.9726,-38.8315,
8.7110,-0.0130,-0.1966,0.9975,0.0083,0.0595,0.0138,-0.0200,0.0011,-0.0016,1.9222,29.0106,-38.8175,
8.7130,-0.0130,-0.1966,0.9975,0.0083,0.0595,0.0138,-0.0322,0.0030,-0.0022,1.9222,29.0106,-38.8175,
8.7140,-0.0130,-0.1966,0.9975,0.0083,0.0595,0.0138,-0.0270,-0.0047,-0.0025,1.9222,29.0106,-38.8175,
8.7140,-0.0112,-0.1961,1.0103,0.0083,0.0595,0.0138,-0.0270,-0.0047,-0.0025,1.9222,29.0106,-38.8175,
8.7150,-0.0122,-0.1965,1.0201,0.0083,0.0595,0.0138,-0.0270,-0.0047,-0.0025,1.9222,29.0106,-38.8175,
8.7160,-0.0109,-0.1960,0.9975,0.0083,0.0595,0.0138,-0.0270,-0.0047,-0.0025,1.9222,29.0106,-38.8175,
8.7160,-0.0103,-0.1974,0.9951,0.0083,0.0595,0.0138,-0.0270,-0.0047,-0.0025,1.9222,29.0106,-38.8175,
8.7170,-0.0103,-0.1974,0.9951,-0.0029,0.0485,-0.0334,-0.0270,-0.0047,-0.0025,1.9222,29.0106,-38.8175,
8.7760,-0.0103,-0.1974,0.9951,-0.0065,0.0548,0.0112,-0.0270,-0.0047,-0.0025,1.9222,29.0106,-38.8175,
8.7780,-0.0056,-0.2021,1.0155,-0.0065,0.0548,0.0112,-0.0270,-0.0047,-0.0025,1.9222,29.0106,-38.8175,
8.7790,-0.0056,-0.2021,1.0155,-0.0065,0.0548,0.0112,-0.0377,0.0005,0.0003,1.9222,29.0106,-38.8175,
8.7800,-0.0051,-0.1996,1.0170,-0.0065,0.0548,0.0112,-0.0377,0.0005,0.0003,1.9222,29.0106,-38.8175,
8.7810,-0.0134,-0.1978,0.9973,-0.0065,0.0548,0.0112,-0.0377,0.0005,0.0003,1.9222,29.0106,-38.8175,
8.7810,-0.0134,-0.1978,0.9973,-0.0065,0.0548,0.0112,-0.0157,0.0005,0.0006,1.9222,29.0106,-38.8175,
8.7820,-0.0134,-0.1978,0.9973,-0.0065,0.0548,0.0112,-0.0157,0.0005,0.0006,1.9010,29.0791,-38.7883,
8.8440,-0.0116,-0.1956,1.0034,-0.0065,0.0548,0.0112,-0.0157,0.0005,0.0006,1.9010,29.0791,-38.7883,
8.8460,-0.0116,-0.1956,1.0034,-0.0065,0.0548,0.0112,-0.0157,0.0005,0.0006,1.8802,29.1357,-38.8240,
8.8470,-0.0098,-0.1931,1.0157,-0.0065,0.0548,0.0112,-0.0157,0.0005,0.0006,1.8802,29.1357,-38.8240,
8.8470,-0.0087,-0.1895,1.0031,-0.0065,0.0548,0.0112,-0.0157,0.0005,0.0006,1.8802,29.1357,-38.8240,
8.8480,-0.0087,-0.1895,1.0031,-0.0065,0.0548,0.0112,-0.0163,0.0069,0.0003,1.8802,29.1357,-38.8240,
8.8510,-0.0087,-0.1895,1.0031,-0.0065,0.0548,0.0112,-0.0368,-0.0034,-0.0034,1.8802,29.1357,-38.8240,
8.8520,-0.0087,-0.1895,1.0031,0.0153,0.0402,0.0339,-0.0368,-0.0034,-0.0034,1.8802,29.1357,-38.8240,
8.8520,-0.0099,-0.1939,1.0059,0.0153,0.0402,0.0339,-0.0368,-0.0034,-0.0034,1.8802,29.1357,-38.8240,
8.9130,-0.0105,-0.2018,1.0141,0.0153,0.0402,0.0339,-0.0368,-0.0034,-0.0034,1.8802,29.1357,-38.8240,
8.9150,-0.0095,-0.2042,1.0092,0.0153,0.0402,0.0339,-0.0368,-0.0034,-0.0034,1.8802,29.1357,-38.8240,
8.9160,-0.0120,-0.2024,1.0045,0.0153,0.0402,0.0339,-0.0368,-0.0034,-0.0034,1.8802,29.1357,-38.8240,
8.9170,-0.0120,-0.2024,1.0045,0.0153,0.0402,0.0339,-0.0261,0.0054,-0.0028,1.8802,29.1357,-38.8240,
8.9170,-0.0120,-0.2024,1.0045,0.0153,0.0402,0.0339,-0.0261,0.0054,-0.0028,1.8807,29.1455,-38.8234,
8.9180,-0.0120,-0.2024,1.0045,0.0084,0.1115,0.0276,-0.0261,0.0054,-0.0028,1.8807,29.1455,-38.8234,
8.9790,-0.0120,-0.2024,1.0045,0.0084,0.1115,0.0276,-0.0228,0.0039,-0.0004,1.8807,29.1455,-38.8234,
8.9810,-0.0120,-0.2024,1.0045,0.0084,0.1115,0.0276,-0.0228,0.0039,-0.0004,1.9084,29.2161,-38.7923,
8.9820,-0.0122,-0.2031,1.0097,0.0084,0.1115,0.0276,-0.0228,0.0039,-0.0004,1.9084,29.2161,-38.7923,
8.9830,-0.0120,-0.2018,1.0024,0.0084,0.1115,0.0276,-0.0228,0.0039,-0.0004,1.9084,29.2161,-38.7923,
8.9840,-0.0115,-0.2004,1.0036,0.0084,0.1115,0.0276,-0.0228,0.0039,-0.0004,1.9084,29.2161,-38.7923,
8.9850,-0.0115,-0.2004,1.0036,0.0084,0.1115,0.0276,-0.0130,-0.0025,-0.0001,1.9084,29.2161,-38.7923,
8.9890,-0.0115,-0.2004,1.0036,-0.0051,0.0193,0.0425,-0.0130,-0.0025,-0.0001,1.9084,29.2161,-38.7923,
8.9900,-0.0095,-0.1999,1.0042,-0.0051,0.0193,0.0425,-0.0130,-0.0025,-0.0001,1.9084,29.2161,-38.7923,
9.0470,-0.0095,-0.1999,1.0042,-0.0051,0.0193,0.0425,-0.0252,-0.0065,-0.0028,1.9084,29.2161,-38.7923,
9.0480,-0.0104,-0.2004,1.0095,-0.0051,0.0193,0.0425,-0.0252,-0.0065,-0.0028,1.9084,29.2161,-38.7923,
9.0490,-0.0114,-0.2011,1.0141,-0.0051,0.0193,0.0425,-0.0252,-0.0065,-0.0028,1.9084,29.2161,-38.7923,
9.0510,-0.0114,-0.2011,1.0141,-0.0051,0.0193,0.0425,-0.0252,-0.0065,-0.0028,1.8991,29.2859,-38.7369,
9.0520,-0.0114,-0.2011,1.0141,-0.0051,0.0193,0.0425,-0.0108,-0.0077,-0.0022,1.8991,29.2859,-38.7369,
9.0520,-0.0110,-0.1996,1.0073,-0.0051,0.0193,0.0425,-0.0108,-0.0077,-0.0022,1.8991,29.2859,-38.7369,
9.0530,-0.0110,-0.1996,1.0073,-0.0115,0.0417,-0.0118,-0.0108,-0.0077,-0.0022,1.8991,29.2859,-38.7369,
9.1130,-0.0101,-0.2000,0.9965,-0.0115,0.0417,-0.0118,-0.0108,-0.0077,-0.0022,1.8991,29.2859,-38.7369,
9.1150,-0.0101,-0.2000,0.9965,-0.0115,0.0417,-0.0118,-0.0108,-0.0077,-0.0022,1.9611,29.3193,-38.6941,
9.1160,-0.0094,-0.2027,1.0020,-0.0115,0.0417,-0.0118,-0.0108,-0.0077,-0.0022,1.9611,29.3193,-38.6941,
9.1160,-0.0073,-0.2057,1.0152,-0.0115,0.0417,-0.0118,-0.0108,-0.0077,-0.0022,1.9611,29.3193,-38.6941,
9.1170,-0.0073,-0.2057,1.0152,-0.0115,0.0417,-0.0118,-0.0402,-0.0037,-0.0025,1.9611,29.3193,-38.6941,
9.1240,-0.0073,-0.2057,1.0152,-0.0067,0.0606,0.0295,-0.0402,-0.0037,-0.0025,1.9611,29.3193,-38.6941,
9.1260,-0.0079,-0.2004,1.0001,-0.0067,0.0606,0.0295,-0.0402,-0.0037,-0.0025,1.9611,29.3193,-38.6941,
9.1270,-0.0079,-0.2004,1.0001,-0.0067,0.0606,0.0295,-0.0111,0.0076,-0.0007,1.9611,29.3193,-38.6941,
9.1760,-0.0079,-0.2004,1.0001,-0.0067,0.0606,0.0295,-0.0322,0.0042,-0.0016,1.9611,29.3193,-38.6941,
9.1770,-0.0114,-0.1978,1.0057,-0.0067,0.0606,0.0295,-0.0322,0.0042,-0.0016,1.9611,29.3193,-38.6941,
9.1780,-0.0099,-0.1994,1.0100,-0.0067,0.0606,0.0295,-0.0322,0.0042,-0.0016,1.9611,29.3193,-38.6941,
9.1790,-0.0099,-0.1994,1.0100,-0.0067,0.0606,0.0295,-0.0322,0.0042,-0.0016,1.9383,29.3587,-38.6539,
9.1830,-0.0105,-0.2022,1.0080,-0.0067,0.0606,0.0295,-0.0322,0.0042,-0.0016,1.9383,29.3587,-38.6539,
9.1840,-0.0105,-0.2022,1.0080,0.0162,0.0502,0.0003,-0.0322,0.0042,-0.0016,1.9383,29.3587,-38.6539,
9.2450,-0.0089,-0.2046,1.0111,0.0162,0.0502,0.0003,-0.0322,0.0042,-0.0016,1.9383,29.3587,-38.6539,
9.2470,-0.0089,-0.2046,1.0111,0.0162,0.0502,0.0003,-0.0240,-0.0056,-0.0022,1.9383,29.3587,-38.6539,
9.2470,-0.0089,-0.2046,1.0111,0.0162,0.0502,0.0003,-0.0194,-0.0053,-0.0016,1.9383,29.3587,-38.6539,
9.2480,-0.0093,-0.2062,1.0053,0.0162,0.0502,0.0003,-0.0194,-0.0053,-0.0016,1.9383,29.3587,-38.6539,
9.2480,-0.0109,-0.2065,0.9997,0.0162,0.0502,0.0003,-0.0194,-0.0053,-0.0016,1.9383,29.3587,-38.6539,
9.2490,-0.0109,-0.2065,0.9997,0.0162,0.0502,0.0003,-0.0194,-0.0053,-0.0016,1.9524,29.4099,-38.5989,
9.2610,-0.0109,-0.2065,0.9997,-0.0061,0.0748,0.0318,-0.0194,-0.0053,-0.0016,1.9524,29.4099,-38.5989,
9.2630,-0.0095,-0.2068,1.0140,-0.0061,0.0748,0.0318,-0.0194,-0.0053,-0.0016,1.9524,29.4099,-38.5989,
9.3110,-0.0095,-0.2043,0.9999,-0.0061,0.0748,0.0318,-0.0194,-0.0053,-0.0016,1.9524,29.4099,-38.5989,
9.3130,-0.0095,-0.2043,0.9999,-0.0061,0.0748,0.0318,-0.0093,-0.0028,-0.0010,1.9524,29.4099,-38.5989,
9.3150,-0.0101,-0.2043,1.0069,-0.0061,0.0748,0.0318,-0.0093,-0.0028,-0.0010,1.9524,29.4099,-38.5989,
9.3160,-0.0101,-0.2043,1.0069,-0.0061,0.0748,0.0318,-0.0093,-0.0028,-0.0010,1.9299,29.4595,-38.5452,
9.3250,-0.0101,-0.2043,1.0069,-0.0061,0.0748,0.0318,-0.0087,-0.0034,0.0003,1.9299,29.4595,-38.5452,
9.3260,-0.0098,-0.2043,1.0051,-0.0061,0.0748,0.0318,-0.0087,-0.0034,0.0003,1.9299,29.4595,-38.5452,
9.3270,-0.0098,-0.2043,1.0051,-0.0024,0.0202,0.0227,-0.0087,-0.0034,0.0003,1.9299,29.4595,-38.5452,
9.3780,-0.0098,-0.2043,1.0051,-0.0024,0.0202,0.0227,-0.0069,-0.0053,-0.0010,1.9299,29.4595,-38.5452,
9.3790,-0.0098,-0.2043,1.0051,-0.0024,0.0202,0.0227,-0.0069,-0.0053,-0.0010,1.9789,29.4723,-38.5170,
9.3800,-0.0104,-0.2032,1.0052,-0.0024,0.0202,0.0227,-0.0069,-0.0053,-0.0010,1.9789,29.4723,-38.5170,
9.3810,-0.0103,-0.2053,1.0050,-0.0024,0.0202,0.0227,-0.0069,-0.0053,-0.0010,1.9789,29.4723,-38.5170,
9.4000,-0.0103,-0.2053,1.0050,-0.0047,0.0398,-0.0102,-0.0069,-0.0053,-0.0010,1.9789,29.4723,-38.5170,
9.4010,-0.0095,-0.2031,1.0096,-0.0047,0.0398,-0.0102,-0.0069,-0.0053,-0.0010,1.9789,29.4723,-38.5170,
9.4020,-0.0095,-0.2031,1.0096,-0.0047,0.0398,-0.0102,-0.0041,-0.0001,-0.0004,1.9789,29.4723,-38.5170,
9.4020,-0.0084,-0.2022,1.0062,-0.0047,0.0398,-0.0102,-0.0041,-0.0001,-0.0004,1.9789,29.4723,-38.5170,
9.4440,-0.0084,-0.2022,1.0062,-0.0047,0.0398,-0.0102,-0.0041,-0.0028,-0.0016,1.9789,29.4723,-38.5170,
9.4450,-0.0078,-0.2024,1.0065,-0.0047,0.0398,-0.0102,-0.0041,-0.0028,-0.0016,1.9789,29.4723,-38.5170,
9.4470,-0.0078,-0.2024,1.0065,-0.0047,0.0398,-0.0102,-0.0041,-0.0028,-0.0016,2.0437,29.5544,-38.4839,
9.4480,-0.0092,-0.2024,1.0052,-0.0047,0.0398,-0.0102,-0.0041,-0.0028,-0.0016,2.0437,29.5544,-38.4839,
9.4580,-0.0092,-0.2024,1.0052,-0.0023,0.0434,0.0205,-0.0041,-0.0028,-0.0016,2.0437,29.5544,-38.4839,
9.4590,-0.0083,-0.2014,1.0043,-0.0023,0.0434,0.0205,-0.0041,-0.0028,-0.0016,2.0437,29.5544,-38.4839,
9.5130,-0.0083,-0.2014,1.0043,-0.0023,0.0434,0.0205,-0.0096,-0.0016,-0.0010,2.0437,29.5544,-38.4839,
9.5150,-0.0076,-0.2031,1.0036,-0.0023,0.0434,0.0205,-0.0096,-0.0016,-0.0010,2.0437,29.5544,-38.4839,
9.5150,-0.0078,-0.2047,1.0037,-0.0023,0.0434,0.0205,-0.0096,-0.0016,-0.0010,2.0437,29.5544,-38.4839,
9.5160,-0.0078,-0.2047,1.0037,-0.0023,0.0434,0.0205,-0.0096,-0.0016,-0.0010,2.0686,29.5763,-38.4431,
9.5360,-0.0078,-0.2047,1.0037,0.0085,0.0580,0.0045,-0.0096,-0.0016,-0.0010,2.0686,29.5763,-38.4431,
9.5370,-0.0078,-0.2047,1.0037,0.0085,0.0580,0.0045,-0.0142,-0.0010,0.0003,2.0686,29.5763,-38.4431,
9.5370,-0.0099,-0.2060,1.0080,0.0085,0.0580,0.0045,-0.0142,-0.0010,0.0003,2.0686,29.5763,-38.4431,
9.5380,-0.0099,-0.2041,1.0007,0.0085,0.0580,0.0045,-0.0142,-0.0010,0.0003,2.0686,29.5763,-38.4431,
9.5770,-0.0099,-0.2041,1.0007,0.0085,0.0580,0.0045,-0.0111,0.0027,-0.0013,2.0686,29.5763,-38.4431,
9.5780,-0.0094,-0.2032,1.0159,0.0085,0.0580,0.0045,-0.0111,0.0027,-0.0013,2.0686,29.5763,-38.4431,
9.5780,-0.0110,-0.2033,1.0086,0.0085,0.0580,0.0045,-0.0111,0.0027,-0.0013,2.0686,29.5763,-38.4431,
9.5790,-0.0110,-0.2033,1.0086,0.0085,0.0580,0.0045,-0.0111,0.0027,-0.0013,2.1060,29.5980,-38.4276,
9.5940,-0.0110,-0.2033,1.0086,-0.0027,0.0417,-0.0063,-0.0111,0.0027,-0.0013,2.1060,29.5980,-38.4276,
9.5950,-0.0110,-0.2033,1.0086,-0.0027,0.0417,-0.0063,-0.0194,-0.0096,-0.0016,2.1060,29.5980,-38.4276,
9.5960,-0.0110,-0.2042,0.9982,-0.0027,0.0417,-0.0063,-0.0194,-0.0096,-0.0016,2.1060,29.5980,-38.4276,
9.6430,-0.0110,-0.2042,0.9982,-0.0027,0.0417,-0.0063,-0.0124,0.0051,-0.0004,2.1060,29.5980,-38.4276,
9.6440,-0.0057,-0.2075,0.9920,-0.0027,0.0417,-0.0063,-0.0124,0.0051,-0.0004,2.1060,29.5980,-38.4276,
9.6450,-0.0057,-0.2075,0.9920,-0.0027,0.0417,-0.0063,-0.0124,0.0051,-0.0004,2.0801,29.5785,-38.3912,
9.6460,-0.0034,-0.2103,1.0316,-0.0027,0.0417,-0.0063,-0.0124,0.0051,-0.0004,2.0801,29.5785,-38.3912,
9.6720,-0.0034,-0.2103,1.0316,-0.0127,0.0430,0.0071,-0.0124,0.0051,-0.0004,2.0801,29.5785,-38.3912,
9.6730,-0.0057,-0.2057,0.9987,-0.0127,0.0430,0.0071,-0.0124,0.0051,-0.0004,2.0801,29.5785,-38.3912,
9.6760,-0.0142,-0.2037,0.9991,-0.0127,0.0430,0.0071,-0.0124,0.0051,-0.0004,2.0801,29.5785,-38.3912,
9.6760,-0.0142,-0.2037,0.9991,-0.0127,0.0430,0.0071,0.0057,-0.0068,0.0012,2.0801,29.5785,-38.3912,
9.7130,-0.0094,-0.1996,1.0054,-0.0127,0.0430,0.0071,0.0057,-0.0068,0.0012,2.0801,29.5785,-38.3912,
9.7150,-0.0070,-0.1932,1.0114,-0.0127,0.0430,0.0071,0.0057,-0.0068,0.0012,2.0801,29.5785,-38.3912,
9.7150,-0.0070,-0.1932,1.0114,-0.0127,0.0430,0.0071,0.0084,0.0042,0.0009,2.0801,29.5785,-38.3912,
9.7160,-0.0070,-0.1932,1.0114,-0.0127,0.0430,0.0071,0.0084,0.0042,0.0009,2.0688,29.6090,-38.3383,
9.7310,-0.0070,-0.1932,1.0114,0.0183,0.0177,0.0247,0.0084,0.0042,0.0009,2.0688,29.6090,-38.3383,
9.7320,-0.0066,-0.1937,1.0029,0.0183,0.0177,0.0247,0.0084,0.0042,0.0009,2.0688,29.6090,-38.3383,
9.7780,-0.0066,-0.1937,1.0029,0.0183,0.0177,0.0247,-0.0316,-0.0004,-0.0043,2.0688,29.6090,-38.3383,
9.7790,-0.0108,-0.2027,1.0080,0.0183,0.0177,0.0247,-0.0316,-0.0004,-0.0043,2.0688,29.6090,-38.3383,
9.7800,-0.0108,-0.2027,1.0080,0.0183,0.0177,0.0247,-0.0316,-0.0004,-0.0043,2.0576,29.6171,-38.3767,
9.7810,-0.0101,-0.2099,1.0092,0.0183,0.0177,0.0247,-0.0316,-0.0004,-0.0043,2.0576,29.6171,-38.3767,
9.8090,-0.0086,-0.2108,1.0070,0.0183,0.0177,0.0247,-0.0316,-0.0004,-0.0043,2.0576,29.6171,-38.3767,
9.8110,-0.0088,-0.2060,1.0098,0.0183,0.0177,0.0247,-0.0316,-0.0004,-0.0043,2.0576,29.6171,-38.3767,
9.8110,-0.0088,-0.2060,1.0098,0.0084,0.1182,0.0183,-0.0316,-0.0004,-0.0043,2.0576,29.6171,-38.3767,
9.8120,-0.0088,-0.2060,1.0098,0.0084,0.1182,0.0183,-0.0154,0.0027,-0.0037,2.0576,29.6171,-38.3767,
9.8440,-0.0092,-0.2040,1.0051,0.0084,0.1182,0.0183,-0.0154,0.0027,-0.0037,2.0576,29.6171,-38.3767,
9.8450,-0.0092,-0.2040,1.0051,0.0084,0.1182,0.0183,-0.0154,0.0027,-0.0037,2.0338,29.6258,-38.3770,
9.8460,-0.0092,-0.2040,1.0051,0.0084,0.1182,0.0183,-0.0026,0.0069,0.0006,2.0338,29.6258,-38.3770,
9.8670,-0.0089,-0.2041,1.0078,0.0084,0.1182,0.0183,-0.0026,0.0069,0.0006,2.0338,29.6258,-38.3770,
9.8690,-0.0089,-0.2041,1.0078,0.0084,0.1182,0.0183,-0.0044,-0.0001,-0.0007,2.0338,29.6258,-38.3770,
9.8690,-0.0089,-0.2041,1.0078,-0.0028,0.0000,0.0344,-0.0044,-0.0001,-0.0007,2.0338,29.6258,-38.3770,
9.8700,-0.0093,-0.2044,1.0062,-0.0028,0.0000,0.0344,-0.0044,-0.0001,-0.0007,2.0338,29.6258,-38.3770,
9.9100,-0.0093,-0.2044,1.0062,-0.0028,0.0000,0.0344,-0.0069,-0.0025,-0.0022,2.0338,29.6258,-38.3770,
9.9110,-0.0077,-0.2036,1.0050,-0.0028,0.0000,0.0344,-0.0069,-0.0025,-0.0022,2.0338,29.6258,-38.3770,
9.9120,-0.0082,-0.2041,1.0069,-0.0028,0.0000,0.0344,-0.0069,-0.0025,-0.0022,2.0338,29.6258,-38.3770,
9.9120,-0.0082,-0.2041,1.0069,-0.0028,0.0000,0.0344,-0.0069,-0.0025,-0.0022,1.9853,29.6338,-38.3654,
9.9460,-0.0082,-0.2041,1.0069,-0.0028,0.0000,0.0344,0.0020,-0.0050,-0.0025,1.9853,29.6338,-38.3654,
9.9470,-0.0082,-0.2041,1.0069,-0.0016,0.0395,0.0101,0.0020,-0.0050,-0.0025,1.9853,29.6338,-38.3654,
9.9480,-0.0106,-0.2026,1.0125,-0.0016,0.0395,0.0101,0.0020,-0.0050,-0.0025,1.9853,29.6338,-38.3654,
9.9480,-0.0108,-0.1991,1.0034,-0.0016,0.0395,0.0101,0.0020,-0.0050,-0.0025,1.9853,29.6338,-38.3654,
9.9770,-0.0108,-0.1991,1.0034,-0.0016,0.0395,0.0101,0.0020,-0.0050,-0.0025,1.9350,29.6022,-38.3691,
9.9780,-0.0094,-0.1992,1.0013,-0.0016,0.0395,0.0101,0.0020,-0.0050,-0.0025,1.9350,29.6022,-38.3691,
10.0030,-0.0071,-0.2041,1.0140,-0.0016,0.0395,0.0101,0.0020,-0.0050,-0.0025,1.9350,29.6022,-38.3691,
10.0040,-0.0070,-0.2026,1.0043,-0.0016,0.0395,0.0101,0.0020,-0.0050,-0.0025,1.9350,29.6022,-38.3691,
10.0050,-0.0070,-0.2026,1.0043,-0.0044,0.0548,0.0158,0.0020,-0.0050,-0.0025,1.9350,29.6022,-38.3691,
10.0050,-0.0070,-0.2026,1.0043,-0.0044,0.0548,0.0158,-0.0151,-0.0010,-0.0016,1.9350,29.6022,-38.3691,
10.0440,-0.0070,-0.2026,1.0043,-0.0044,0.0548,0.0158,0.0026,0.0082,-0.0004,1.9350,29.6022,-38.3691,
10.0450,-0.0070,-0.2026,1.0043,-0.0044,0.0548,0.0158,0.0026,0.0082,-0.0004,1.9099,29.5917,-38.3578,
10.0460,-0.0084,-0.1981,1.0040,-0.0044,0.0548,0.0158,0.0026,0.0082,-0.0004,1.9099,29.5917,-38.3578,
10.0470,-0.0087,-0.1994,1.0076,-0.0044,0.0548,0.0158,0.0026,0.0082,-0.0004,1.9099,29.5917,-38.3578,
10.0830,-0.0084,-0.2020,1.0079,-0.0044,0.0548,0.0158,0.0026,0.0082,-0.0004,1.9099,29.5917,-38.3578,
10.0840,-0.0084,-0.2020,1.0079,-0.0044,0.0548,0.0158,-0.0148,0.0051,-0.0013,1.9099,29.5917,-38.3578,
10.0840,-0.0088,-0.2043,1.0092,-0.0044,0.0548,0.0158,-0.0148,0.0051,-0.0013,1.9099,29.5917,-38.3578,
10.0850,-0.0088,-0.2043,1.0092,0.0119,0.0627,0.0034,-0.0148,0.0051,-0.0013,1.9099,29.5917,-38.3578,
10.1110,-0.0086,-0.2049,1.0029,0.0119,0.0627,0.0034,-0.0148,0.0051,-0.0013,1.9099,29.5917,-38.3578,
10.1130,-0.0086,-0.2049,1.0029,0.0119,0.0627,0.0034,-0.0063,-0.0065,-0.0007,1.9099,29.5917,-38.3578,
10.1140,-0.0086,-0.2049,1.0029,0.0119,0.0627,0.0034,-0.0063,-0.0065,-0.0007,1.8598,29.5597,-38.3744,
10.1400,-0.0086,-0.2049,1.0029,0.0005,0.0595,0.0259,-0.0063,-0.0065,-0.0007,1.8598,29.5597,-38.3744,
10.1420,-0.0086,-0.2049,1.0029,0.0005,0.0595,0.0259,-0.0078,-0.0037,-0.0007,1.8598,29.5597,-38.3744,
10.1440,-0.0094,-0.2057,1.0015,0.0005,0.0595,0.0259,-0.0078,-0.0037,-0.0007,1.8598,29.5597,-38.3744,
10.1450,-0.0106,-0.2059,1.0048,0.0005,0.0595,0.0259,-0.0078,-0.0037,-0.0007,1.8598,29.5597,-38.3744,
10.1770,-0.0106,-0.2059,1.0048,0.0005,0.0595,0.0259,-0.0078,-0.0037,-0.0007,1.8249,29.5761,-38.4260,
10.1790,-0.0088,-0.2032,1.0089,0.0005,0.0595,0.0259,-0.0078,-0.0037,-0.0007,1.8249,29.5761,-38.4260,
10.2180,-0.0088,-0.2032,1.0089,-0.0091,0.0187,-0.0116,-0.0078,-0.0037,-0.0007,1.8249,29.5761,-38.4260,
10.2200,-0.0084,-0.2013,1.0021,-0.0091,0.0187,-0.0116,-0.0078,-0.0037,-0.0007,1.8249,29.5761,-38.4260,
10.2200,-0.0097,-0.2022,1.0025,-0.0091,0.0187,-0.0116,-0.0078,-0.0037,-0.0007,1.8249,29.5761,-38.4260,
10.2210,-0.0097,-0.2022,1.0025,-0.0091,0.0187,-0.0116,0.0057,-0.0019,0.0003,1.8249,29.5761,-38.4260,
10.2210,-0.0093,-0.2037,1.0082,-0.0091,0.0187,-0.0116,0.0057,-0.0019,0.0003,1.8249,29.5761,-38.4260,
10.2220,-0.0093,-0.2037,1.0082,-0.0091,0.0187,-0.0116,-0.0060,-0.0065,-0.0007,1.8249,29.5761,-38.4260,
10.2440,-0.0087,-0.2022,1.0089,-0.0091,0.0187,-0.0116,-0.0060,-0.0065,-0.0007,1.8249,29.5761,-38.4260,
10.2460,-0.0087,-0.2022,1.0089,-0.0091,0.0187,-0.0116,-0.0060,-0.0065,-0.0007,1.7749,29.5326,-38.4947,
10.2770,-0.0087,-0.1996,1.0010,-0.0091,0.0187,-0.0116,-0.0060,-0.0065,-0.0007,1.7749,29.5326,-38.4947,
10.2780,-0.0087,-0.1996,1.0010,-0.0091,0.0187,-0.0116,0.0063,-0.0037,-0.0004,1.7749,29.5326,-38.4947,
10.2790,-0.0087,-0.1996,1.0010,-0.0058,0.0415,-0.0065,0.0063,-0.0037,-0.0004,1.7749,29.5326,-38.4947,
10.2790,-0.0094,-0.1994,1.0060,-0.0058,0.0415,-0.0065,0.0063,-0.0037,-0.0004,1.7749,29.5326,-38.4947,
10.3120,-0.0084,-0.1997,1.0074,-0.0058,0.0415,-0.0065,0.0063,-0.0037,-0.0004,1.7749,29.5326,-38.4947,
10.3150,-0.0084,-0.1997,1.0074,-0.0058,0.0415,-0.0065,-0.0053,-0.0010,-0.0010,1.7749,29.5326,-38.4947,
10.3150,-0.0084,-0.1997,1.0074,-0.0058,0.0415,-0.0065,-0.0053,-0.0010,-0.0010,1.7249,29.5112,-38.4849,
10.3560,-0.0075,-0.1985,1.0075,-0.0058,0.0415,-0.0065,-0.0053,-0.0010,-0.0010,1.7249,29.5112,-38.4849,
10.3570,-0.0075,-0.1985,1.0075,-0.0052,0.0536,0.0012,-0.0053,-0.0010,-0.0010,1.7249,29.5112,-38.4849,
10.3580,-0.0075,-0.1985,1.0075,-0.0052,0.0536,0.0012,0.0047,-0.0019,-0.0022,1.7249,29.5112,-38.4849,
10.3590,-0.0066,-0.1983,1.0060,-0.0052,0.0536,0.0012,0.0047,-0.0019,-0.0022,1.7249,29.5112,-38.4849,
10.3590,-0.0081,-0.1986,1.0045,-0.0052,0.0536,0.0012,0.0047,-0.0019,-0.0022,1.7249,29.5112,-38.4849,
10.3770,-0.0084,-0.1998,1.0047,-0.0052,0.0536,0.0012,0.0047,-0.0019,-0.0022,1.7249,29.5112,-38.4849,
10.3780,-0.0084,-0.1998,1.0047,-0.0052,0.0536,0.0012,-0.0008,-0.0010,-0.0016,1.7249,29.5112,-38.4849,
10.3800,-0.0084,-0.1998,1.0047,-0.0052,0.0536,0.0012,-0.0008,-0.0010,-0.0016,1.7354,29.4717,-38.5127,
10.4130,-0.0084,-0.1998,1.0047,0.0074,0.0624,0.0084,-0.0008,-0.0010,-0.0016,1.7354,29.4717,-38.5127,
10.4150,-0.0084,-0.1998,1.0047,0.0074,0.0624,0.0084,-0.0005,-0.0001,0.0003,1.7354,29.4717,-38.5127,
10.4150,-0.0067,-0.2011,1.0068,0.0074,0.0624,0.0084,-0.0005,-0.0001,0.0003,1.7354,29.4717,-38.5127,
10.4160,-0.0068,-0.2010,1.0050,0.0074,0.0624,0.0084,-0.0005,-0.0001,0.0003,1.7354,29.4717,-38.5127,
10.4440,-0.0093,-0.2014,1.0046,0.0074,0.0624,0.0084,-0.0005,-0.0001,0.0003,1.7354,29.4717,-38.5127,
10.4460,-0.0093,-0.2014,1.0046,0.0074,0.0624,0.0084,-0.0005,-0.0001,0.0003,1.7953,29.4437,-38.5509,
10.4920,-0.0093,-0.2014,1.0046,0.0074,0.0624,0.0084,0.0072,0.0021,0.0015,1.7953,29.4437,-38.5509,
10.4930,-0.0104,-0.1999,1.0026,0.0074,0.0624,0.0084,0.0072,0.0021,0.0015,1.7953,29.4437,-38.5509,
10.4940,-0.0093,-0.1982,1.0101,0.0074,0.0624,0.0084,0.0072,0.0021,0.0015,1.7953,29.4437,-38.5509,
10.4950,-0.0104,-0.1971,1.0050,0.0074,0.0624,0.0084,0.0072,0.0021,0.0015,1.7953,29.4437,-38.5509,
10.4960,-0.0104,-0.1971,1.0050,0.0074,0.0624,0.0084,-0.0050,-0.0007,-0.0007,1.7953,29.4437,-38.5509,
10.4960,-0.0104,-0.1971,1.0050,0.0063,0.0371,-0.0023,-0.0050,-0.0007,-0.0007,1.7953,29.4437,-38.5509,
10.5110,-0.0104,-0.1971,1.0050,0.0063,0.0371,-0.0023,-0.0050,-0.0007,-0.0007,1.8192,29.4350,-38.5506,
10.5130,-0.0101,-0.1996,1.0003,0.0063,0.0371,-0.0023,-0.0050,-0.0007,-0.0007,1.8192,29.4350,-38.5506,
10.5520,-0.0101,-0.1996,1.0003,-0.0119,0.0519,0.0041,-0.0050,-0.0007,-0.0007,1.8192,29.4350,-38.5506,
10.5530,-0.0032,-0.2027,0.9921,-0.0119,0.0519,0.0041,-0.0050,-0.0007,-0.0007,1.8192,29.4350,-38.5506,
10.5530,-0.0032,-0.2027,0.9921,-0.0119,0.0519,0.0041,-0.0194,-0.0022,0.0003,1.8192,29.4350,-38.5506,
10.5540,-0.0060,-0.2057,1.0247,-0.0119,0.0519,0.0041,-0.0194,-0.0022,0.0003,1.8192,29.4350,-38.5506,
10.5770,-0.0060,-0.2057,1.0247,-0.0119,0.0519,0.0041,0.0090,0.0085,0.0003,1.8192,29.4350,-38.5506,
10.5810,-0.0073,-0.1989,0.9963,-0.0119,0.0519,0.0041,0.0090,0.0085,0.0003,1.8192,29.4350,-38.5506,
10.5820,-0.0073,-0.1989,0.9963,-0.0119,0.0519,0.0041,0.0090,0.0085,0.0003,1.8803,29.4263,-38.6004,
10.6290,-0.0073,-0.1989,0.9963,0.0234,0.0071,-0.0034,0.0090,0.0085,0.0003,1.8803,29.4263,-38.6004,
10.6310,-0.0073,-0.1989,0.9963,0.0234,0.0071,-0.0034,0.0185,0.0103,0.0009,1.8803,29.4263,-38.6004,
10.6320,-0.0121,-0.1992,1.0104,0.0234,0.0071,-0.0034,0.0185,0.0103,0.0009,1.8803,29.4263,-38.6004,
10.6330,-0.0092,-0.1934,1.0117,0.0234,0.0071,-0.0034,0.0185,0.0103,0.0009,1.8803,29.4263,-38.6004,
10.6340,-0.0093,-0.1865,1.0070,0.0234,0.0071,-0.0034,0.0185,0.0103,0.0009,1.8803,29.4263,-38.6004,
10.6440,-0.0093,-0.1865,1.0070,0.0234,0.0071,-0.0034,0.0185,0.0103,0.0009,1.9169,29.4279,-38.5990,
10.6870,-0.0093,-0.1865,1.0070,-0.0074,0.0887,0.0131,0.0185,0.0103,0.0009,1.9169,29.4279,-38.5990,
10.6890,-0.0082,-0.1884,1.0023,-0.0074,0.0887,0.0131,0.0185,0.0103,0.0009,1.9169,29.4279,-38.5990,
10.6890,-0.0082,-0.1884,1.0023,-0.0074,0.0887,0.0131,-0.0029,0.0030,-0.0004,1.9169,29.4279,-38.5990,
10.6900,-0.0098,-0.1991,1.0111,-0.0074,0.0887,0.0131,-0.0029,0.0030,-0.0004,1.9169,29.4279,-38.5990,
10.6900,-0.0092,-0.2042,1.0102,-0.0074,0.0887,0.0131,-0.0029,0.0030,-0.0004,1.9169,29.4279,-38.5990,
10.6910,-0.0092,-0.2042,1.0102,-0.0074,0.0887,0.0131,-0.0115,0.0057,-0.0034,1.9169,29.4279,-38.5990,
10.7130,-0.0086,-0.2024,1.0108,-0.0074,0.0887,0.0131,-0.0115,0.0057,-0.0034,1.9169,29.4279,-38.5990,
10.7150,-0.0086,-0.2024,1.0108,-0.0074,0.0887,0.0131,-0.0115,0.0057,-0.0034,1.9274,29.3994,-38.5876,
10.7680,-0.0086,-0.2024,1.0108,0.0047,0.0353,0.0225,-0.0115,0.0057,-0.0034,1.9274,29.3994,-38.5876,
10.7710,-0.0089,-0.1967,1.0045,0.0047,0.0353,0.0225,-0.0115,0.0057,-0.0034,1.9274,29.3994,-38.5876,
10.7720,-0.0089,-0.1967,1.0045,0.0047,0.0353,0.0225,0.0130,0.0066,-0.0007,1.9274,29.3994,-38.5876,
10.7730,-0.0106,-0.1948,1.0031,0.0047,0.0353,0.0225,0.0130,0.0066,-0.0007,1.9274,29.3994,-38.5876,
10.7740,-0.0106,-0.1948,1.0031,0.0047,0.0353,0.0225,0.0041,0.0048,0.0006,1.9274,29.3994,-38.5876,
10.7740,-0.0094,-0.1950,1.0065,0.0047,0.0353,0.0225,0.0041,0.0048,0.0006,1.9274,29.3994,-38.5876,
10.7770,-0.0094,-0.1950,1.0065,0.0047,0.0353,0.0225,0.0041,0.0048,0.0006,2.0256,29.4132,-38.5961,
10.8250,-0.0094,-0.1950,1.0065,0.0015,0.0466,-0.0037,0.0041,0.0048,0.0006,2.0256,29.4132,-38.5961,
10.8270,-0.0088,-0.1955,1.0031,0.0015,0.0466,-0.0037,0.0041,0.0048,0.0006,2.0256,29.4132,-38.5961,
10.8280,-0.0084,-0.1965,1.0080,0.0015,0.0466,-0.0037,0.0041,0.0048,0.0006,2.0256,29.4132,-38.5961,
10.8290,-0.0098,-0.1960,1.0113,0.0015,0.0466,-0.0037,0.0041,0.0048,0.0006,2.0256,29.4132,-38.5961,
10.8290,-0.0098,-0.1960,1.0113,0.0015,0.0466,-0.0037,-0.0002,0.0021,-0.0004,2.0256,29.4132,-38.5961,
10.8440,-0.0098,-0.1960,1.0113,0.0015,0.0466,-0.0037,0.0011,-0.0001,-0.0007,2.0256,29.4132,-38.5961,
10.8460,-0.0098,-0.1960,1.0113,0.0015,0.0466,-0.0037,0.0011,-0.0001,-0.0007,2.0982,29.3956,-38.6332,
10.8480,-0.0106,-0.1938,1.0109,0.0015,0.0466,-0.0037,0.0011,-0.0001,-0.0007,2.0982,29.3956,-38.6332,
10.9020,-0.0108,-0.1926,0.9977,0.0015,0.0466,-0.0037,0.0011,-0.0001,-0.0007,2.0982,29.3956,-38.6332,
10.9050,-0.0108,-0.1926,0.9977,0.0015,0.0466,-0.0037,-0.0215,-0.0019,-0.0022,2.0982,29.3956,-38.6332,
10.9050,-0.0087,-0.1959,1.0075,0.0015,0.0466,-0.0037,-0.0215,-0.0019,-0.0022,2.0982,29.3956,-38.6332,
10.9060,-0.0072,-0.1981,1.0136,0.0015,0.0466,-0.0037,-0.0215,-0.0019,-0.0022,2.0982,29.3956,-38.6332,
10.9070,-0.0072,-0.1981,1.0136,0.0023,0.0552,0.0227,-0.0215,-0.0019,-0.0022,2.0982,29.3956,-38.6332,
10.9110,-0.0072,-0.1981,1.0136,0.0023,0.0552,0.0227,-0.0215,-0.0019,-0.0022,2.0704,29.3144,-38.6906,
10.9620,-0.0072,-0.1981,1.0136,0.0064,0.0554,0.0051,-0.0215,-0.0019,-0.0022,2.0704,29.3144,-38.6906,
10.9640,-0.0072,-0.1981,1.0136,0.0064,0.0554,0.0051,0.0026,0.0039,0.0006,2.0704,29.3144,-38.6906,
10.9640,-0.0076,-0.1954,1.0025,0.0064,0.0554,0.0051,0.0026,0.0039,0.0006,2.0704,29.3144,-38.6906,
10.9650,-0.0076,-0.1954,1.0025,0.0064,0.0554,0.0051,-0.0090,0.0066,-0.0004,2.0704,29.3144,-38.6906,
10.9650,-0.0099,-0.1915,1.0043,0.0064,0.0554,0.0051,-0.0090,0.0066,-0.0004,2.0704,29.3144,-38.6906,
10.9660,-0.0094,-0.1914,1.0101,0.0064,0.0554,0.0051,-0.0090,0.0066,-0.0004,2.0704,29.3144,-38.6906,
10.9770,-0.0094,-0.1914,1.0101,0.0064,0.0554,0.0051,-0.0090,0.0066,-0.0004,2.0209,29.3028,-38.6802,
11.0380,-0.0110,-0.1922,1.0112,0.0064,0.0554,0.0051,-0.0090,0.0066,-0.0004,2.0209,29.3028,-38.6802,
11.0390,-0.0110,-0.1922,1.0112,0.0064,0.0554,0.0051,-0.0081,-0.0025,-0.0019,2.0209,29.3028,-38.6802,
11.0400,-0.0095,-0.1932,1.0109,0.0064,0.0554,0.0051,-0.0081,-0.0025,-0.0019,2.0209,29.3028,-38.6802,
11.0400,-0.0095,-0.1932,1.0109,0.0064,0.0554,0.0051,-0.0017,-0.0059,-0.0007,2.0209,29.3028,-38.6802,
11.0410,-0.0097,-0.1963,1.0118,0.0064,0.0554,0.0051,-0.0017,-0.0059,-0.0007,2.0209,29.3028,-38.6802,
11.0410,-0.0104,-0.1970,1.0087,0.0064,0.0554,0.0051,-0.0017,-0.0059,-0.0007,2.0209,29.3028,-38.6802,
11.0420,-0.0104,-0.1970,1.0087,0.0022,0.0739,0.0022,-0.0017,-0.0059,-0.0007,2.0209,29.3028,-38.6802,
11.0430,-0.0104,-0.1970,1.0087,0.0022,0.0739,0.0022,-0.0017,-0.0059,-0.0007,2.0190,29.2521,-38.7348,
11.0980,-0.0108,-0.1950,1.0079,0.0022,0.0739,0.0022,-0.0017,-0.0059,-0.0007,2.0190,29.2521,-38.7348,
11.1000,-0.0098,-0.1948,1.0060,0.0022,0.0739,0.0022,-0.0017,-0.0059,-0.0007,2.0190,29.2521,-38.7348,
11.1010,-0.0086,-0.1928,1.0056,0.0022,0.0739,0.0022,-0.0017,-0.0059,-0.0007,2.0190,29.2521,-38.7348,
11.1010,-0.0086,-0.1928,1.0056,0.0022,0.0739,0.0022,0.0011,-0.0050,-0.0007,2.0190,29.2521,-38.7348,
11.1020,-0.0086,-0.1928,1.0056,-0.0097,0.0452,0.0411,0.0011,-0.0050,-0.0007,2.0190,29.2521,-38.7348,
11.1100,-0.0086,-0.1928,1.0056,-0.0097,0.0452,0.0411,0.0011,-0.0050,-0.0007,2.0300,29.2334,-38.7228,
11.1760,-0.0086,-0.1928,1.0056,-0.0073,0.0453,-0.0029,0.0011,-0.0050,-0.0007,2.0300,29.2334,-38.7228,
11.1780,-0.0086,-0.1928,1.0056,-0.0073,0.0453,-0.0029,-0.0011,-0.0068,-0.0010,2.0300,29.2334,-38.7228,
11.1790,-0.0094,-0.1932,1.0057,-0.0073,0.0453,-0.0029,-0.0011,-0.0068,-0.0010,2.0300,29.2334,-38.7228,
11.1790,-0.0094,-0.1932,1.0057,-0.0073,0.0453,-0.0029,0.0038,-0.0047,-0.0010,2.0300,29.2334,-38.7228,
11.1800,-0.0087,-0.1955,1.0079,-0.0073,0.0453,-0.0029,0.0038,-0.0047,-0.0010,2.0300,29.2334,-38.7228,
11.1810,-0.0094,-0.1941,1.0089,-0.0073,0.0453,-0.0029,0.0038,-0.0047,-0.0010,2.0300,29.2334,-38.7228,
11.1810,-0.0101,-0.1927,1.0095,-0.0073,0.0453,-0.0029,0.0038,-0.0047,-0.0010,2.0300,29.2334,-38.7228,
11.1820,-0.0101,-0.1927,1.0095,-0.0073,0.0453,-0.0029,0.0038,-0.0047,-0.0010,2.0761,29.1758,-38.7504,
11.2330,-0.0101,-0.1927,1.0095,-0.0073,0.0453,-0.0029,0.0105,-0.0056,-0.0007,2.0761,29.1758,-38.7504,
11.2340,-0.0101,-0.1927,1.0095,-0.0073,0.0453,-0.0029,0.0053,-0.0077,-0.0013,2.0761,29.1758,-38.7504,
11.2350,-0.0090,-0.1911,1.0090,-0.0073,0.0453,-0.0029,0.0053,-0.0077,-0.0013,2.0761,29.1758,-38.7504,
11.2350,-0.0077,-0.1904,1.0059,-0.0073,0.0453,-0.0029,0.0053,-0.0077,-0.0013,2.0761,29.1758,-38.7504,
11.2360,-0.0073,-0.1903,1.0073,-0.0073,0.0453,-0.0029,0.0053,-0.0077,-0.0013,2.0761,29.1758,-38.7504,
11.2360,-0.0073,-0.1903,1.0073,-0.0095,0.0380,0.0149,0.0053,-0.0077,-0.0013,2.0761,29.1758,-38.7504,
11.2430,-0.0073,-0.1903,1.0073,-0.0095,0.0380,0.0149,0.0053,-0.0077,-0.0013,2.1233,29.1486,-38.7505,
11.3140,-0.0073,-0.1903,1.0073,-0.0095,0.0380,0.0149,0.0011,-0.0074,-0.0019,2.1233,29.1486,-38.7505,
11.3160,-0.0077,-0.1898,1.0109,-0.0095,0.0380,0.0149,0.0011,-0.0074,-0.0019,2.1233,29.1486,-38.7505,
11.3170,-0.0081,-0.1920,1.0085,-0.0095,0.0380,0.0149,0.0011,-0.0074,-0.0019,2.1233,29.1486,-38.7505,
11.3180,-0.0082,-0.1910,1.0109,-0.0095,0.0380,0.0149,0.0011,-0.0074,-0.0019,2.1233,29.1486,-38.7505,
11.3190,-0.0082,-0.1910,1.0109,-0.0095,0.0380,0.0149,0.0044,-0.0056,-0.0007,2.1233,29.1486,-38.7505,
