
time,gFx,gFy,gFz,ax,ay,az,wx,wy,wz,Bx,By,Bz,
0.0400,-0.1312,0.2372,0.9765,0.0000,0.0000,0.0000,0.0000,0.0000,0.0000,0.0000,0.0000,0.0000,
0.0400,-0.1146,0.2784,0.9309,0.0000,0.0000,0.0000,0.0000,0.0000,0.0000,0.0000,0.0000,0.0000,
0.0830,-0.0900,0.2934,0.8967,0.0000,0.0000,0.0000,0.0000,0.0000,0.0000,0.0000,0.0000,0.0000,
0.0840,-0.0900,0.2934,0.8967,0.0000,0.0000,0.0000,0.0720,-0.1449,-0.2048,0.0000,0.0000,0.0000,
0.0840,-0.1175,0.2711,0.9458,0.0000,0.0000,0.0000,0.0720,-0.1449,-0.2048,0.0000,0.0000,0.0000,
0.1050,-0.1091,0.2381,1.0063,0.0000,0.0000,0.0000,0.0720,-0.1449,-0.2048,0.0000,0.0000,0.0000,
0.1050,-0.1091,0.2381,1.0063,0.0000,0.0000,0.0000,-0.1262,0.0155,-0.0316,0.0000,0.0000,0.0000,
0.1510,-0.0851,0.2048,1.0611,0.0000,0.0000,0.0000,-0.1262,0.0155,-0.0316,0.0000,0.0000,0.0000,
0.1520,-0.0851,0.2048,1.0611,0.0000,0.0000,0.0000,-0.0605,-0.0392,-0.0007,0.0000,0.0000,0.0000,
0.1530,-0.0575,0.1868,1.0587,0.0000,0.0000,0.0000,-0.0605,-0.0392,-0.0007,0.0000,0.0000,0.0000,
0.1530,-0.0575,0.1868,1.0587,0.0000,0.0000,0.0000,-0.0605,-0.0392,-0.0007,-7.9409,-9.0502,-36.1409,
0.1540,0.0016,0.1781,1.0196,0.0000,0.0000,0.0000,-0.0605,-0.0392,-0.0007,-7.9409,-9.0502,-36.1409,
0.1550,0.0016,0.1781,1.0196,0.0000,0.0000,0.0000,-0.0605,-0.0392,-0.0007,-7.9409,-9.0502,-36.1409,
0.1720,-0.0122,0.1875,1.0283,0.0000,0.0000,0.0000,-0.0605,-0.0392,-0.0007,-7.9409,-9.0502,-36.1409,
0.1730,-0.0122,0.1875,1.0283,0.0000,0.0000,0.0000,0.0699,-0.1244,-0.3318,-7.9409,-9.0502,-36.1409,
0.2170,-0.0122,0.1875,1.0283,0.0000,0.0000,0.0000,0.1300,-0.1861,-0.6840,-7.9409,-9.0502,-36.1409,
0.2190,-0.0768,0.1966,1.0449,0.0000,0.0000,0.0000,0.1300,-0.1861,-0.6840,-7.9409,-9.0502,-36.1409,
0.2190,-0.1465,0.2010,1.0339,0.0000,0.0000,0.0000,0.1300,-0.1861,-0.6840,-7.9409,-9.0502,-36.1409,
0.2200,-0.1465,0.2010,1.0339,0.0000,0.0000,0.0000,0.1300,-0.1861,-0.6840,-7.9919,-9.1357,-36.3022,
0.2320,-0.1593,0.2176,0.9941,0.0000,0.0000,0.0000,0.1300,-0.1861,-0.6840,-7.9919,-9.1357,-36.3022,
0.2330,-0.1593,0.2176,0.9941,0.2651,-0.4125,0.5395,0.1300,-0.1861,-0.6840,-7.9919,-9.1357,-36.3022,
0.2840,-0.1819,0.2646,0.9359,0.2651,-0.4125,0.5395,0.1300,-0.1861,-0.6840,-7.9919,-9.1357,-36.3022,
0.2850,-0.1557,0.2813,0.8793,0.2651,-0.4125,0.5395,0.1300,-0.1861,-0.6840,-7.9919,-9.1357,-36.3022,
0.2850,-0.1557,0.2813,0.8793,0.2651,-0.4125,0.5395,0.2467,-0.2884,-0.6229,-7.9919,-9.1357,-36.3022,
0.2860,-0.1557,0.2813,0.8793,0.2651,-0.4125,0.5395,0.2467,-0.2884,-0.6229,-8.0034,-9.5689,-35.9698,
0.2880,-0.1557,0.2813,0.8793,-0.0964,-0.3195,0.2952,0.2467,-0.2884,-0.6229,-8.0034,-9.5689,-35.9698,
0.2890,-0.1116,0.3168,0.8800,-0.0964,-0.3195,0.2952,0.2467,-0.2884,-0.6229,-8.0034,-9.5689,-35.9698,
0.2900,-0.1116,0.3168,0.8800,-0.0964,-0.3195,0.2952,0.0610,-0.1012,-0.1699,-8.0034,-9.5689,-35.9698,
0.3510,-0.1116,0.3168,0.8800,-0.0964,-0.3195,0.2952,-0.3192,0.0329,0.0014,-8.0034,-9.5689,-35.9698,
0.3540,-0.1096,0.3016,0.8866,-0.0964,-0.3195,0.2952,-0.3192,0.0329,0.0014,-8.0034,-9.5689,-35.9698,
0.3550,-0.1096,0.3016,0.8866,-0.0964,-0.3195,0.2952,-0.3192,0.0329,0.0014,-7.9938,-9.5350,-35.9417,
0.3550,-0.0746,0.2474,0.9527,-0.0964,-0.3195,0.2952,-0.3192,0.0329,0.0014,-7.9938,-9.5350,-35.9417,
0.3560,-0.0501,0.2078,1.0389,-0.0964,-0.3195,0.2952,-0.3192,0.0329,0.0014,-7.9938,-9.5350,-35.9417,
0.3660,-0.0501,0.2078,1.0389,-0.5021,0.5335,-0.7066,-0.3192,0.0329,0.0014,-7.9938,-9.5350,-35.9417,
0.3720,-0.0773,0.2100,1.0506,-0.5021,0.5335,-0.7066,-0.3192,0.0329,0.0014,-7.9938,-9.5350,-35.9417,
0.3730,-0.0773,0.2100,1.0506,-0.5021,0.5335,-0.7066,-0.2866,-0.0019,-0.0582,-7.9938,-9.5350,-35.9417,
0.4170,-0.0773,0.2100,1.0506,-0.5021,0.5335,-0.7066,-0.0929,-0.2527,-0.1663,-7.9938,-9.5350,-35.9417,
0.4180,-0.0855,0.2034,1.0142,-0.5021,0.5335,-0.7066,-0.0929,-0.2527,-0.1663,-7.9938,-9.5350,-35.9417,
0.4190,-0.0548,0.1935,1.0169,-0.5021,0.5335,-0.7066,-0.0929,-0.2527,-0.1663,-7.9938,-9.5350,-35.9417,
0.4200,-0.0548,0.1935,1.0169,-0.5021,0.5335,-0.7066,-0.0929,-0.2527,-0.1663,-7.9871,-9.4996,-35.9444,
0.4250,-0.0548,0.1935,1.0169,0.0716,0.2249,-0.0811,-0.0929,-0.2527,-0.1663,-7.9871,-9.4996,-35.9444,
0.4250,-0.0762,0.1990,1.0405,0.0716,0.2249,-0.0811,-0.0929,-0.2527,-0.1663,-7.9871,-9.4996,-35.9444,
0.4840,-0.0762,0.1990,1.0405,0.0716,0.2249,-0.0811,0.0207,-0.2157,-0.1815,-7.9871,-9.4996,-35.9444,
0.4850,-0.0762,0.1990,1.0405,0.0716,0.2249,-0.0811,0.0207,-0.2157,-0.1815,-8.0979,-9.5067,-35.9350,
0.4870,-0.1180,0.1927,1.0210,0.0716,0.2249,-0.0811,0.0207,-0.2157,-0.1815,-8.0979,-9.5067,-35.9350,
0.4880,-0.1180,0.1927,1.0210,0.0716,0.2249,-0.0811,0.0125,-0.1943,-0.0753,-8.0979,-9.5067,-35.9350,
0.4890,-0.1008,0.1969,0.9853,0.0716,0.2249,-0.0811,0.0125,-0.1943,-0.0753,-8.0979,-9.5067,-35.9350,
0.4890,-0.0657,0.1862,0.9617,0.0716,0.2249,-0.0811,0.0125,-0.1943,-0.0753,-8.0979,-9.5067,-35.9350,
0.5040,-0.0657,0.1862,0.9617,0.0013,-0.1995,0.3410,0.0125,-0.1943,-0.0753,-8.0979,-9.5067,-35.9350,
0.5050,-0.0487,0.1883,0.9904,0.0013,-0.1995,0.3410,0.0125,-0.1943,-0.0753,-8.0979,-9.5067,-35.9350,
0.5510,-0.0487,0.1883,0.9904,0.0013,-0.1995,0.3410,-0.1210,-0.2472,-0.1831,-8.0979,-9.5067,-35.9350,
0.5520,-0.0431,0.1867,0.9824,0.0013,-0.1995,0.3410,-0.1210,-0.2472,-0.1831,-8.0979,-9.5067,-35.9350,
0.5540,-0.0431,0.1811,0.9568,0.0013,-0.1995,0.3410,-0.1210,-0.2472,-0.1831,-8.0979,-9.5067,-35.9350,
0.5550,-0.0431,0.1811,0.9568,0.0013,-0.1995,0.3410,-0.1210,-0.2472,-0.1831,-8.2327,-9.5021,-35.9003,
0.5610,-0.0431,0.1811,0.9568,-0.2583,-0.1270,-0.0539,-0.1210,-0.2472,-0.1831,-8.2327,-9.5021,-35.9003,
0.5620,-0.0706,0.1908,0.9238,-0.2583,-0.1270,-0.0539,-0.1210,-0.2472,-0.1831,-8.2327,-9.5021,-35.9003,
0.5630,-0.0706,0.1908,0.9238,-0.2583,-0.1270,-0.0539,-0.2438,-0.2780,-0.2377,-8.2327,-9.5021,-35.9003,
0.6180,-0.0706,0.1908,0.9238,-0.2583,-0.1270,-0.0539,-0.4616,-0.3156,-0.2026,-8.2327,-9.5021,-35.9003,
0.6210,-0.0706,0.1908,0.9238,-0.2583,-0.1270,-0.0539,-0.4616,-0.3156,-0.2026,-8.4598,-9.3472,-35.8564,
0.6220,-0.0870,0.2081,1.0130,-0.2583,-0.1270,-0.0539,-0.4616,-0.3156,-0.2026,-8.4598,-9.3472,-35.8564,
0.6220,-0.0862,0.1636,1.0330,-0.2583,-0.1270,-0.0539,-0.4616,-0.3156,-0.2026,-8.4598,-9.3472,-35.8564,
0.6400,-0.0662,0.1020,1.0350,-0.2583,-0.1270,-0.0539,-0.4616,-0.3156,-0.2026,-8.4598,-9.3472,-35.8564,
0.6410,-0.0662,0.1020,1.0350,-0.2583,-0.1270,-0.0539,-0.2786,-0.3470,-0.1516,-8.4598,-9.3472,-35.8564,
0.6410,-0.0662,0.1020,1.0350,-0.0630,0.0969,-0.3390,-0.2786,-0.3470,-0.1516,-8.4598,-9.3472,-35.8564,
0.6840,-0.0662,0.1020,1.0350,-0.0630,0.0969,-0.3390,0.2489,-0.3382,-0.2585,-8.4598,-9.3472,-35.8564,
0.6850,-0.0428,0.1139,1.1135,-0.0630,0.0969,-0.3390,0.2489,-0.3382,-0.2585,-8.4598,-9.3472,-35.8564,
0.6860,0.0442,0.1919,1.1509,-0.0630,0.0969,-0.3390,0.2489,-0.3382,-0.2585,-8.4598,-9.3472,-35.8564,
0.6870,0.0699,0.2017,1.0576,-0.0630,0.0969,-0.3390,0.2489,-0.3382,-0.2585,-8.4598,-9.3472,-35.8564,
0.6870,0.0699,0.2017,1.0576,-0.0630,0.0969,-0.3390,0.2489,-0.3382,-0.2585,-8.8219,-9.2621,-35.7610,
0.7000,0.0699,0.2017,1.0576,-0.4873,-0.3672,0.3909,0.2489,-0.3382,-0.2585,-8.8219,-9.2621,-35.7610,
0.7010,0.0529,0.1972,0.9587,-0.4873,-0.3672,0.3909,0.2489,-0.3382,-0.2585,-8.8219,-9.2621,-35.7610,
0.7510,0.0529,0.1972,0.9587,-0.4873,-0.3672,0.3909,0.2925,-0.5285,-0.5307,-8.8219,-9.2621,-35.7610,
0.7520,-0.0031,0.2413,0.9594,-0.4873,-0.3672,0.3909,0.2925,-0.5285,-0.5307,-8.8219,-9.2621,-35.7610,
0.7550,0.0443,0.2159,0.9532,-0.4873,-0.3672,0.3909,0.2925,-0.5285,-0.5307,-8.8219,-9.2621,-35.7610,
0.7550,0.0443,0.2159,0.9532,-0.4873,-0.3672,0.3909,0.2925,-0.5285,-0.5307,-10.8801,-10.9527,-36.8137,
0.7720,0.1125,0.1550,0.9866,-0.4873,-0.3672,0.3909,0.2925,-0.5285,-0.5307,-10.8801,-10.9527,-36.8137,
0.7730,0.1125,0.1550,0.9866,-0.4873,-0.3672,0.3909,0.0494,-0.5150,-0.5924,-10.8801,-10.9527,-36.8137,
0.7780,0.1125,0.1550,0.9866,0.4131,-0.0480,0.5959,0.0494,-0.5150,-0.5924,-10.8801,-10.9527,-36.8137,
0.8180,0.0414,0.1552,1.0666,0.4131,-0.0480,0.5959,0.0494,-0.5150,-0.5924,-10.8801,-10.9527,-36.8137,
0.8190,0.0414,0.1552,1.0666,0.4131,-0.0480,0.5959,-0.0205,-0.2698,-0.6663,-10.8801,-10.9527,-36.8137,
0.8210,-0.0385,0.1613,1.1007,0.4131,-0.0480,0.5959,-0.0205,-0.2698,-0.6663,-10.8801,-10.9527,-36.8137,
0.8220,0.0061,0.1421,1.0778,0.4131,-0.0480,0.5959,-0.0205,-0.2698,-0.6663,-10.8801,-10.9527,-36.8137,
0.8230,0.0061,0.1421,1.0778,0.4131,-0.0480,0.5959,-0.0205,-0.2698,-0.6663,-11.4257,-10.8852,-36.7130,
0.8350,0.0061,0.1421,1.0778,0.4131,-0.0480,0.5959,0.1276,-0.4729,-0.7066,-11.4257,-10.8852,-36.7130,
0.8360,0.0061,0.1421,1.0778,0.3081,-0.0031,-0.2136,0.1276,-0.4729,-0.7066,-11.4257,-10.8852,-36.7130,
0.8360,0.0789,0.1213,1.0523,0.3081,-0.0031,-0.2136,0.1276,-0.4729,-0.7066,-11.4257,-10.8852,-36.7130,
0.8850,0.0789,0.1213,1.0523,0.3081,-0.0031,-0.2136,0.1276,-0.4729,-0.7066,-12.1262,-11.1605,-36.4207,
0.8860,0.1079,0.1157,1.0224,0.3081,-0.0031,-0.2136,0.1276,-0.4729,-0.7066,-12.1262,-11.1605,-36.4207,
0.8860,0.1079,0.1157,1.0224,0.3081,-0.0031,-0.2136,0.2275,-0.4726,-0.7985,-12.1262,-11.1605,-36.4207,
0.8880,0.0953,0.1233,0.9916,0.3081,-0.0031,-0.2136,0.2275,-0.4726,-0.7985,-12.1262,-11.1605,-36.4207,
0.9060,0.0492,0.1717,1.0012,0.3081,-0.0031,-0.2136,0.2275,-0.4726,-0.7985,-12.1262,-11.1605,-36.4207,
0.9120,0.0492,0.1717,1.0012,-0.2433,-0.6118,0.7148,0.2275,-0.4726,-0.7985,-12.1262,-11.1605,-36.4207,
0.9500,0.0492,0.1717,1.0012,-0.2433,-0.6118,0.7148,0.1417,-0.3770,-0.9323,-12.1262,-11.1605,-36.4207,
0.9510,-0.0562,0.3140,0.9982,-0.2433,-0.6118,0.7148,0.1417,-0.3770,-0.9323,-12.1262,-11.1605,-36.4207,
0.9520,-0.0851,0.4197,0.9319,-0.2433,-0.6118,0.7148,0.1417,-0.3770,-0.9323,-12.1262,-11.1605,-36.4207,
0.9530,-0.0851,0.4197,0.9319,-0.2433,-0.6118,0.7148,0.1417,-0.3770,-0.9323,-12.7851,-11.5711,-36.1353,
0.9730,-0.0230,0.3015,0.8933,-0.2433,-0.6118,0.7148,0.1417,-0.3770,-0.9323,-12.7851,-11.5711,-36.1353,
0.9740,-0.0230,0.3015,0.8933,0.2471,-0.4971,0.0196,0.1417,-0.3770,-0.9323,-12.7851,-11.5711,-36.1353,
0.9740,0.0893,0.1371,0.9463,0.2471,-0.4971,0.0196,0.1417,-0.3770,-0.9323,-12.7851,-11.5711,-36.1353,
0.9750,0.0893,0.1371,0.9463,0.2471,-0.4971,0.0196,0.1300,-0.0108,-0.3162,-12.7851,-11.5711,-36.1353,
1.0170,0.1154,0.1177,1.0803,0.2471,-0.4971,0.0196,0.1300,-0.0108,-0.3162,-12.7851,-11.5711,-36.1353,
1.0190,0.1154,0.1177,1.0803,0.2471,-0.4971,0.0196,-0.1992,-0.0517,-0.1205,-12.7851,-11.5711,-36.1353,
1.0190,0.1154,0.1177,1.0803,0.2471,-0.4971,0.0196,-0.1992,-0.0517,-0.1205,-13.3702,-11.9575,-35.8073,
1.0200,0.0518,0.1602,1.1308,0.2471,-0.4971,0.0196,-0.1992,-0.0517,-0.1205,-13.3702,-11.9575,-35.8073,
1.0390,0.0117,0.2138,1.0991,0.2471,-0.4971,0.0196,-0.1992,-0.0517,-0.1205,-13.3702,-11.9575,-35.8073,
1.0400,0.0117,0.2138,1.0991,0.2471,-0.4971,0.0196,0.0864,-0.1073,-0.3572,-13.3702,-11.9575,-35.8073,
1.0500,0.0117,0.2138,1.0991,-0.5381,0.7953,-0.6308,0.0864,-0.1073,-0.3572,-13.3702,-11.9575,-35.8073,
1.0850,0.0117,0.2138,1.0991,-0.5381,0.7953,-0.6308,0.0864,-0.1073,-0.3572,-13.8856,-12.4099,-35.4938,
1.0860,0.0657,0.2435,1.0432,-0.5381,0.7953,-0.6308,0.0864,-0.1073,-0.3572,-13.8856,-12.4099,-35.4938,
1.0880,0.0657,0.2435,1.0432,-0.5381,0.7953,-0.6308,0.4233,-0.2423,-0.3544,-13.8856,-12.4099,-35.4938,
1.0890,0.0790,0.2921,0.9905,-0.5381,0.7953,-0.6308,0.4233,-0.2423,-0.3544,-13.8856,-12.4099,-35.4938,
1.1060,0.0546,0.3025,0.9605,-0.5381,0.7953,-0.6308,0.4233,-0.2423,-0.3544,-13.8856,-12.4099,-35.4938,
1.1070,0.0054,0.2899,0.9247,-0.5381,0.7953,-0.6308,0.4233,-0.2423,-0.3544,-13.8856,-12.4099,-35.4938,
1.1080,0.0054,0.2899,0.9247,-0.5381,0.7953,-0.6308,0.3939,0.0176,-0.1214,-13.8856,-12.4099,-35.4938,
1.1090,0.0054,0.2899,0.9247,0.1415,-0.6459,0.9753,0.3939,0.0176,-0.1214,-13.8856,-12.4099,-35.4938,
1.1500,0.0145,0.2684,0.9803,0.1415,-0.6459,0.9753,0.3939,0.0176,-0.1214,-13.8856,-12.4099,-35.4938,
1.1520,0.0888,0.2509,0.9942,0.1415,-0.6459,0.9753,0.3939,0.0176,-0.1214,-13.8856,-12.4099,-35.4938,
1.1520,0.0888,0.2509,0.9942,0.1415,-0.6459,0.9753,0.1401,-0.0047,0.0035,-13.8856,-12.4099,-35.4938,
1.1530,0.0888,0.2509,0.9942,0.1415,-0.6459,0.9753,0.1401,-0.0047,0.0035,-14.3246,-13.2490,-35.1503,
1.1720,0.1319,0.2380,0.9935,0.1415,-0.6459,0.9753,0.1401,-0.0047,0.0035,-14.3246,-13.2490,-35.1503,
1.1860,0.1319,0.2380,0.9935,0.0837,0.3590,-0.2523,0.1401,-0.0047,0.0035,-14.3246,-13.2490,-35.1503,
1.2170,0.0646,0.2379,1.0064,0.0837,0.3590,-0.2523,0.1401,-0.0047,0.0035,-14.3246,-13.2490,-35.1503,
1.2180,0.0646,0.2379,1.0064,0.0837,0.3590,-0.2523,0.1566,0.0335,-0.1205,-14.3246,-13.2490,-35.1503,
1.2190,0.0342,0.2595,1.0079,0.0837,0.3590,-0.2523,0.1566,0.0335,-0.1205,-14.3246,-13.2490,-35.1503,
1.2200,0.0342,0.2595,1.0079,0.0837,0.3590,-0.2523,0.1566,0.0335,-0.1205,-14.6209,-14.1389,-34.7535,
1.2380,0.0342,0.2595,1.0079,0.0837,0.3590,-0.2523,0.1841,-0.0044,-0.1049,-14.6209,-14.1389,-34.7535,
1.2390,0.0740,0.2614,0.9987,0.0837,0.3590,-0.2523,0.1841,-0.0044,-0.1049,-14.6209,-14.1389,-34.7535,
1.2450,0.0978,0.2374,0.9897,0.0837,0.3590,-0.2523,0.1841,-0.0044,-0.1049,-14.6209,-14.1389,-34.7535,
1.2460,0.0978,0.2374,0.9897,0.3557,-0.1304,0.0070,0.1841,-0.0044,-0.1049,-14.6209,-14.1389,-34.7535,
1.2840,0.0403,0.2529,0.9693,0.3557,-0.1304,0.0070,0.1841,-0.0044,-0.1049,-14.6209,-14.1389,-34.7535,
1.2860,-0.0165,0.2740,0.9734,0.3557,-0.1304,0.0070,0.1841,-0.0044,-0.1049,-14.6209,-14.1389,-34.7535,
1.2860,-0.0165,0.2740,0.9734,0.3557,-0.1304,0.0070,0.1841,-0.0044,-0.1049,-14.7772,-14.9266,-34.4098,
1.2870,-0.0165,0.2740,0.9734,0.3557,-0.1304,0.0070,0.1310,0.0598,-0.1534,-14.7772,-14.9266,-34.4098,
1.3050,-0.0165,0.2740,0.9734,0.3557,-0.1304,0.0070,-0.0761,0.1135,0.0729,-14.7772,-14.9266,-34.4098,
1.3060,0.0385,0.2509,0.9836,0.3557,-0.1304,0.0070,-0.0761,0.1135,0.0729,-14.7772,-14.9266,-34.4098,
1.3240,0.0796,0.2071,1.0118,0.3557,-0.1304,0.0070,-0.0761,0.1135,0.0729,-14.7772,-14.9266,-34.4098,
1.3250,0.0796,0.2071,1.0118,0.2806,-0.0925,0.0769,-0.0761,0.1135,0.0729,-14.7772,-14.9266,-34.4098,
1.3500,0.0625,0.2044,1.0671,0.2806,-0.0925,0.0769,-0.0761,0.1135,0.0729,-14.7772,-14.9266,-34.4098,
1.3510,0.0625,0.2044,1.0671,0.2806,-0.0925,0.0769,-0.0761,0.1135,0.0729,-14.8307,-15.6453,-34.1866,
1.3520,0.0625,0.2044,1.0671,0.2806,-0.0925,0.0769,-0.2230,0.1606,-0.0331,-14.8307,-15.6453,-34.1866,
1.3710,0.0456,0.2344,1.0374,0.2806,-0.0925,0.0769,-0.2230,0.1606,-0.0331,-14.8307,-15.6453,-34.1866,
1.3810,0.0022,0.2751,0.9875,0.2806,-0.0925,0.0769,-0.2230,0.1606,-0.0331,-14.8307,-15.6453,-34.1866,
1.3820,0.0022,0.2751,0.9875,0.2806,-0.0925,0.0769,-0.0914,0.1667,-0.1153,-14.8307,-15.6453,-34.1866,
1.3820,0.0022,0.2751,0.9875,0.0517,0.0228,-0.1584,-0.0914,0.1667,-0.1153,-14.8307,-15.6453,-34.1866,
1.4170,0.0197,0.2900,0.9637,0.0517,0.0228,-0.1584,-0.0914,0.1667,-0.1153,-14.8307,-15.6453,-34.1866,
1.4180,0.0197,0.2900,0.9637,0.0517,0.0228,-0.1584,-0.0914,0.1667,-0.1153,-14.5851,-16.0650,-34.1912,
1.4380,0.0679,0.2383,0.9738,0.0517,0.0228,-0.1584,-0.0914,0.1667,-0.1153,-14.5851,-16.0650,-34.1912,
1.4400,0.0679,0.2383,0.9738,0.0517,0.0228,-0.1584,-0.0899,0.2522,0.0634,-14.5851,-16.0650,-34.1912,
1.4590,0.0679,0.2383,0.9738,0.3263,-0.0951,0.3166,-0.0899,0.2522,0.0634,-14.5851,-16.0650,-34.1912,
1.4610,0.0708,0.2068,0.9602,0.3263,-0.0951,0.3166,-0.0899,0.2522,0.0634,-14.5851,-16.0650,-34.1912,
1.4830,0.0708,0.2068,0.9602,0.3263,-0.0951,0.3166,-0.1378,0.2430,-0.0346,-14.5851,-16.0650,-34.1912,
1.4850,-0.0141,0.2541,0.9981,0.3263,-0.0951,0.3166,-0.1378,0.2430,-0.0346,-14.5851,-16.0650,-34.1912,
1.4850,-0.0177,0.2399,1.0242,0.3263,-0.0951,0.3166,-0.1378,0.2430,-0.0346,-14.5851,-16.0650,-34.1912,
1.4860,-0.0177,0.2399,1.0242,0.3263,-0.0951,0.3166,-0.1378,0.2430,-0.0346,-14.3452,-16.3571,-34.1753,
1.5060,0.0489,0.1964,1.0367,0.3263,-0.0951,0.3166,-0.1378,0.2430,-0.0346,-14.3452,-16.3571,-34.1753,
1.5080,0.0489,0.1964,1.0367,0.3263,-0.0951,0.3166,-0.1256,0.2336,-0.0459,-14.3452,-16.3571,-34.1753,
1.5180,0.0159,0.2305,1.0532,0.3263,-0.0951,0.3166,-0.1256,0.2336,-0.0459,-14.3452,-16.3571,-34.1753,
1.5190,0.0159,0.2305,1.0532,0.5126,0.0869,-0.2859,-0.1256,0.2336,-0.0459,-14.3452,-16.3571,-34.1753,
1.5500,0.0063,0.2503,1.0208,0.5126,0.0869,-0.2859,-0.1256,0.2336,-0.0459,-14.3452,-16.3571,-34.1753,
1.5510,0.0063,0.2503,1.0208,0.5126,0.0869,-0.2859,0.0409,0.2583,-0.1666,-14.3452,-16.3571,-34.1753,
1.5520,0.0063,0.2503,1.0208,0.5126,0.0869,-0.2859,0.0409,0.2583,-0.1666,-13.9934,-16.6276,-34.2440,
1.5720,0.0169,0.2574,0.9897,0.5126,0.0869,-0.2859,0.0409,0.2583,-0.1666,-13.9934,-16.6276,-34.2440,
1.5970,0.0084,0.2275,0.9353,0.5126,0.0869,-0.2859,0.0409,0.2583,-0.1666,-13.9934,-16.6276,-34.2440,
1.5980,0.0084,0.2275,0.9353,0.2934,-0.1071,0.3416,0.0409,0.2583,-0.1666,-13.9934,-16.6276,-34.2440,
1.5980,0.0084,0.2275,0.9353,0.2934,-0.1071,0.3416,0.0677,0.1985,-0.1140,-13.9934,-16.6276,-34.2440,
1.6170,0.0084,0.2275,0.9353,0.2934,-0.1071,0.3416,-0.1546,0.1930,-0.1846,-13.9934,-16.6276,-34.2440,
1.6190,-0.0412,0.2215,0.9621,0.2934,-0.1071,0.3416,-0.1546,0.1930,-0.1846,-13.9934,-16.6276,-34.2440,
1.6200,-0.0575,0.2275,1.0069,0.2934,-0.1071,0.3416,-0.1546,0.1930,-0.1846,-13.9934,-16.6276,-34.2440,
1.6200,-0.0575,0.2275,1.0069,0.2934,-0.1071,0.3416,-0.1546,0.1930,-0.1846,-13.5426,-16.8638,-34.2943,
1.6380,-0.0094,0.2154,1.0229,0.2934,-0.1071,0.3416,-0.1546,0.1930,-0.1846,-13.5426,-16.8638,-34.2943,
1.6550,-0.0094,0.2154,1.0229,0.2934,-0.1071,0.3416,-0.1241,0.0763,-0.2072,-13.5426,-16.8638,-34.2943,
1.6560,-0.0010,0.2210,1.0275,0.2934,-0.1071,0.3416,-0.1241,0.0763,-0.2072,-13.5426,-16.8638,-34.2943,
1.6560,-0.0010,0.2210,1.0275,0.3355,0.1059,-0.2042,-0.1241,0.0763,-0.2072,-13.5426,-16.8638,-34.2943,
1.6840,-0.0705,0.2157,1.0308,0.3355,0.1059,-0.2042,-0.1241,0.0763,-0.2072,-13.5426,-16.8638,-34.2943,
1.6860,-0.0705,0.2157,1.0308,0.3355,0.1059,-0.2042,-0.1241,0.0763,-0.2072,-12.9692,-16.8831,-34.4553,
1.7050,-0.0705,0.2157,1.0308,0.3355,0.1059,-0.2042,0.1227,0.0118,-0.2955,-12.9692,-16.8831,-34.4553,
1.7060,-0.0589,0.2195,0.9970,0.3355,0.1059,-0.2042,0.1227,0.0118,-0.2955,-12.9692,-16.8831,-34.4553,
1.7350,-0.0668,0.2510,1.0140,0.3355,0.1059,-0.2042,0.1227,0.0118,-0.2955,-12.9692,-16.8831,-34.4553,
1.7360,-0.0668,0.2510,1.0140,0.0566,-0.1569,0.1454,0.1227,0.0118,-0.2955,-12.9692,-16.8831,-34.4553,
1.7500,-0.0826,0.2376,1.0652,0.0566,-0.1569,0.1454,0.1227,0.0118,-0.2955,-12.9692,-16.8831,-34.4553,
1.7510,-0.0826,0.2376,1.0652,0.0566,-0.1569,0.1454,0.2095,-0.0221,-0.1617,-12.9692,-16.8831,-34.4553,
1.7520,-0.0826,0.2376,1.0652,0.0566,-0.1569,0.1454,0.2095,-0.0221,-0.1617,-12.4204,-16.9142,-34.6436,
1.7720,-0.0178,0.2337,1.0228,0.0566,-0.1569,0.1454,0.2095,-0.0221,-0.1617,-12.4204,-16.9142,-34.6436,
1.7730,-0.0178,0.2337,1.0228,0.0566,-0.1569,0.1454,0.3228,-0.0911,-0.1287,-12.4204,-16.9142,-34.6436,
1.7740,-0.0430,0.2611,0.9574,0.0566,-0.1569,0.1454,0.3228,-0.0911,-0.1287,-12.4204,-16.9142,-34.6436,
1.7920,-0.0894,0.2883,0.9877,0.0566,-0.1569,0.1454,0.3228,-0.0911,-0.1287,-12.4204,-16.9142,-34.6436,
1.7930,-0.0894,0.2883,0.9877,-0.4078,-0.2389,0.2536,0.3228,-0.0911,-0.1287,-12.4204,-16.9142,-34.6436,
1.8160,-0.0424,0.2587,1.0201,-0.4078,-0.2389,0.2536,0.3228,-0.0911,-0.1287,-12.4204,-16.9142,-34.6436,
1.8170,-0.0424,0.2587,1.0201,-0.4078,-0.2389,0.2536,0.1615,-0.2652,-0.0059,-12.4204,-16.9142,-34.6436,
1.8180,-0.0424,0.2587,1.0201,-0.4078,-0.2389,0.2536,0.1615,-0.2652,-0.0059,-11.9477,-17.0078,-34.8512,
1.8380,0.0286,0.2005,0.9628,-0.4078,-0.2389,0.2536,0.1615,-0.2652,-0.0059,-11.9477,-17.0078,-34.8512,
1.8700,0.0286,0.2005,0.9628,-0.4078,-0.2389,0.2536,0.1459,-0.2346,0.0240,-11.9477,-17.0078,-34.8512,
1.8720,0.0515,0.2143,0.9218,-0.4078,-0.2389,0.2536,0.1459,-0.2346,0.0240,-11.9477,-17.0078,-34.8512,
1.8720,0.0515,0.2143,0.9218,-0.4044,-0.0624,0.0788,0.1459,-0.2346,0.0240,-11.9477,-17.0078,-34.8512,
1.8830,-0.0138,0.2259,0.9657,-0.4044,-0.0624,0.0788,0.1459,-0.2346,0.0240,-11.9477,-17.0078,-34.8512,
1.8840,-0.0138,0.2259,0.9657,-0.4044,-0.0624,0.0788,0.1459,-0.2346,0.0240,-11.5880,-17.1314,-34.9234,
1.9050,-0.0071,0.1826,0.9716,-0.4044,-0.0624,0.0788,0.1459,-0.2346,0.0240,-11.5880,-17.1314,-34.9234,
1.9060,-0.0071,0.1826,0.9716,-0.4044,-0.0624,0.0788,-0.0535,-0.2252,-0.1660,-11.5880,-17.1314,-34.9234,
1.9280,-0.0141,0.1753,0.9770,-0.4044,-0.0624,0.0788,-0.0535,-0.2252,-0.1660,-11.5880,-17.1314,-34.9234,
1.9290,-0.0141,0.1753,0.9770,-0.4044,-0.0624,0.0788,-0.1571,-0.3083,-0.1531,-11.5880,-17.1314,-34.9234,
1.9300,-0.0442,0.1942,0.9756,-0.4044,-0.0624,0.0788,-0.1571,-0.3083,-0.1531,-11.5880,-17.1314,-34.9234,
1.9310,-0.0442,0.1942,0.9756,0.0620,-0.2853,-0.2696,-0.1571,-0.3083,-0.1531,-11.5880,-17.1314,-34.9234,
1.9500,0.0357,0.1851,0.9919,0.0620,-0.2853,-0.2696,-0.1571,-0.3083,-0.1531,-11.5880,-17.1314,-34.9234,
1.9510,0.0357,0.1851,0.9919,0.0620,-0.2853,-0.2696,-0.1571,-0.3083,-0.1531,-11.4046,-17.3265,-34.8520,
1.9710,0.0278,0.1151,1.0302,0.0620,-0.2853,-0.2696,-0.1571,-0.3083,-0.1531,-11.4046,-17.3265,-34.8520,
1.9720,0.0278,0.1151,1.0302,0.0620,-0.2853,-0.2696,-0.2554,-0.4048,-0.1675,-11.4046,-17.3265,-34.8520,
2.0050,0.0278,0.1151,1.0302,-0.3728,-0.4681,-0.2162,-0.2554,-0.4048,-0.1675,-11.4046,-17.3265,-34.8520,
2.0060,-0.0078,0.1735,1.0418,-0.3728,-0.4681,-0.2162,-0.2554,-0.4048,-0.1675,-11.4046,-17.3265,-34.8520,
2.0170,-0.0078,0.1735,1.0418,-0.3728,-0.4681,-0.2162,-0.1940,-0.0764,-0.3569,-11.4046,-17.3265,-34.8520,
2.0180,-0.0078,0.1735,1.0418,-0.3728,-0.4681,-0.2162,-0.1940,-0.0764,-0.3569,-11.2903,-17.4573,-34.8176,
2.0180,-0.0261,0.2300,1.0301,-0.3728,-0.4681,-0.2162,-0.1940,-0.0764,-0.3569,-11.2903,-17.4573,-34.8176,
2.0380,-0.0518,0.1644,1.1018,-0.3728,-0.4681,-0.2162,-0.1940,-0.0764,-0.3569,-11.2903,-17.4573,-34.8176,
2.0640,-0.0198,0.1637,1.1314,-0.3728,-0.4681,-0.2162,-0.1940,-0.0764,-0.3569,-11.2903,-17.4573,-34.8176,
2.0650,-0.0198,0.1637,1.1314,-0.3728,-0.4681,-0.2162,-0.3458,-0.4139,-0.1565,-11.2903,-17.4573,-34.8176,
2.0660,0.0158,0.1881,1.1529,-0.3728,-0.4681,-0.2162,-0.3458,-0.4139,-0.1565,-11.2903,-17.4573,-34.8176,
2.0660,0.0158,0.1881,1.1529,-0.2783,-0.4382,0.1707,-0.3458,-0.4139,-0.1565,-11.2903,-17.4573,-34.8176,
2.0830,0.0158,0.1881,1.1529,-0.2783,-0.4382,0.1707,-0.2896,-0.5932,0.1117,-11.2903,-17.4573,-34.8176,
2.0850,0.0639,0.1508,1.1565,-0.2783,-0.4382,0.1707,-0.2896,-0.5932,0.1117,-11.2903,-17.4573,-34.8176,
2.0850,0.0639,0.1508,1.1565,-0.2783,-0.4382,0.1707,-0.2896,-0.5932,0.1117,-11.4043,-17.5183,-34.7355,
2.1060,0.1006,0.1417,1.1244,-0.2783,-0.4382,0.1707,-0.2896,-0.5932,0.1117,-11.4043,-17.5183,-34.7355,
2.1430,0.1006,0.1417,1.1244,-0.2783,-0.4382,0.1707,-0.1635,-0.3058,0.0191,-11.4043,-17.5183,-34.7355,
2.1440,0.1595,0.1859,1.1636,-0.2783,-0.4382,0.1707,-0.1635,-0.3058,0.0191,-11.4043,-17.5183,-34.7355,
2.1450,0.1595,0.1859,1.1636,-0.8714,-0.2163,1.0961,-0.1635,-0.3058,0.0191,-11.4043,-17.5183,-34.7355,
2.1500,0.1952,0.1938,1.1338,-0.8714,-0.2163,1.0961,-0.1635,-0.3058,0.0191,-11.4043,-17.5183,-34.7355,
2.1510,0.1952,0.1938,1.1338,-0.8714,-0.2163,1.0961,-0.1635,-0.3058,0.0191,-11.8048,-17.4745,-34.6569,
2.1720,0.1348,0.1917,1.0383,-0.8714,-0.2163,1.0961,-0.1635,-0.3058,0.0191,-11.8048,-17.4745,-34.6569,
2.1730,0.1348,0.1917,1.0383,-0.8714,-0.2163,1.0961,0.1291,-0.3889,-0.1086,-11.8048,-17.4745,-34.6569,
2.2010,0.1348,0.1917,1.0383,-0.8714,-0.2163,1.0961,0.1508,-0.3446,-0.2326,-11.8048,-17.4745,-34.6569,
2.2020,0.2348,0.2032,0.9688,-0.8714,-0.2163,1.0961,0.1508,-0.3446,-0.2326,-11.8048,-17.4745,-34.6569,
2.2030,0.3449,0.2613,0.9568,-0.8714,-0.2163,1.0961,0.1508,-0.3446,-0.2326,-11.8048,-17.4745,-34.6569,
2.2040,0.3449,0.2613,0.9568,0.3020,-0.4628,1.3960,0.1508,-0.3446,-0.2326,-11.8048,-17.4745,-34.6569,
2.2160,0.3449,0.2613,0.9568,0.3020,-0.4628,1.3960,0.1508,-0.3446,-0.2326,-12.3655,-17.4558,-34.5340,
2.2380,0.3154,0.2898,1.0687,0.3020,-0.4628,1.3960,0.1508,-0.3446,-0.2326,-12.3655,-17.4558,-34.5340,
2.2810,0.3154,0.2898,1.0687,0.3020,-0.4628,1.3960,0.0201,-0.2340,-0.4067,-12.3655,-17.4558,-34.5340,
2.2830,0.4300,0.2541,1.1703,0.3020,-0.4628,1.3960,0.0201,-0.2340,-0.4067,-12.3655,-17.4558,-34.5340,
2.2830,0.4449,0.2488,1.1363,0.3020,-0.4628,1.3960,0.0201,-0.2340,-0.4067,-12.3655,-17.4558,-34.5340,
2.2840,0.4449,0.2488,1.1363,1.2489,-0.1324,0.0321,0.0201,-0.2340,-0.4067,-12.3655,-17.4558,-34.5340,
2.2850,0.4449,0.2488,1.1363,1.2489,-0.1324,0.0321,0.4941,-0.2557,-0.7600,-12.3655,-17.4558,-34.5340,
2.2850,0.3087,0.2352,1.0393,1.2489,-0.1324,0.0321,0.4941,-0.2557,-0.7600,-12.3655,-17.4558,-34.5340,
2.2860,0.3087,0.2352,1.0393,1.2489,-0.1324,0.0321,0.4941,-0.2557,-0.7600,-12.9574,-17.5544,-34.3682,
2.3060,-0.0169,0.2127,0.9508,1.2489,-0.1324,0.0321,0.4941,-0.2557,-0.7600,-12.9574,-17.5544,-34.3682,
2.3380,0.0761,0.2725,0.7471,1.2489,-0.1324,0.0321,0.4941,-0.2557,-0.7600,-12.9574,-17.5544,-34.3682,
2.3390,0.0761,0.2725,0.7471,1.2489,-0.1324,0.0321,0.8652,0.0314,-0.6959,-12.9574,-17.5544,-34.3682,
2.3400,0.2222,0.3126,0.6446,1.2489,-0.1324,0.0321,0.8652,0.0314,-0.6959,-12.9574,-17.5544,-34.3682,
2.3410,0.2222,0.3126,0.6446,2.9474,-0.2577,1.2146,0.8652,0.0314,-0.6959,-12.9574,-17.5544,-34.3682,
2.3510,0.2222,0.3126,0.6446,2.9474,-0.2577,1.2146,0.8652,0.0314,-0.6959,-13.3930,-17.8869,-34.0830,
2.3720,0.2147,0.2824,0.6497,2.9474,-0.2577,1.2146,0.8652,0.0314,-0.6959,-13.3930,-17.8869,-34.0830,
2.3730,0.2147,0.2824,0.6497,2.9474,-0.2577,1.2146,0.7519,0.4712,-0.7069,-13.3930,-17.8869,-34.0830,
2.4170,0.2147,0.2824,0.6497,2.9474,-0.2577,1.2146,0.3420,0.1985,-1.2136,-13.3930,-17.8869,-34.0830,
2.4180,0.2878,0.2840,0.6082,2.9474,-0.2577,1.2146,0.3420,0.1985,-1.2136,-13.3930,-17.8869,-34.0830,
2.4190,0.2476,0.3102,0.7072,2.9474,-0.2577,1.2146,0.3420,0.1985,-1.2136,-13.3930,-17.8869,-34.0830,
2.4200,0.2476,0.3102,0.7072,0.6003,-0.6132,-1.6169,0.3420,0.1985,-1.2136,-13.3930,-17.8869,-34.0830,
2.4200,-0.0976,0.3373,0.7762,0.6003,-0.6132,-1.6169,0.3420,0.1985,-1.2136,-13.3930,-17.8869,-34.0830,
2.4210,-0.0976,0.3373,0.7762,0.6003,-0.6132,-1.6169,0.3420,0.1985,-1.2136,-13.5092,-18.4018,-33.8236,
2.4380,-0.0933,0.3758,0.6891,0.6003,-0.6132,-1.6169,0.3420,0.1985,-1.2136,-13.5092,-18.4018,-33.8236,
2.4390,-0.0933,0.3758,0.6891,0.6003,-0.6132,-1.6169,0.3399,-0.0993,-1.0899,-13.5092,-18.4018,-33.8236,
2.4740,-0.0933,0.3758,0.6891,0.6003,-0.6132,-1.6169,0.0919,-0.2863,-1.2530,-13.5092,-18.4018,-33.8236,
2.4750,0.2855,0.3692,0.5899,0.6003,-0.6132,-1.6169,0.0919,-0.2863,-1.2530,-13.5092,-18.4018,-33.8236,
2.4760,0.1924,0.3580,0.8121,0.6003,-0.6132,-1.6169,0.0919,-0.2863,-1.2530,-13.5092,-18.4018,-33.8236,
2.4770,0.1924,0.3580,0.8121,1.6221,-0.3947,-2.8824,0.0919,-0.2863,-1.2530,-13.5092,-18.4018,-33.8236,
2.4830,0.1924,0.3580,0.8121,1.6221,-0.3947,-2.8824,0.0919,-0.2863,-1.2530,-13.4077,-19.1491,-33.4811,
2.5050,-0.1285,0.3714,0.9212,1.6221,-0.3947,-2.8824,0.0919,-0.2863,-1.2530,-13.4077,-19.1491,-33.4811,
2.5500,-0.1285,0.3714,0.9212,1.6221,-0.3947,-2.8824,0.2718,-0.4802,-1.9112,-13.4077,-19.1491,-33.4811,
2.5510,0.0425,0.3269,0.7657,1.6221,-0.3947,-2.8824,0.2718,-0.4802,-1.9112,-13.4077,-19.1491,-33.4811,
2.5520,0.0425,0.3269,0.7657,1.6221,-0.3947,-2.8824,0.2718,-0.4802,-1.9112,-12.9352,-20.2305,-33.0822,
2.5530,0.4113,0.2303,0.6537,1.6221,-0.3947,-2.8824,0.2718,-0.4802,-1.9112,-12.9352,-20.2305,-33.0822,
2.5540,0.4113,0.2303,0.6537,0.4495,0.0929,-2.3879,0.2718,-0.4802,-1.9112,-12.9352,-20.2305,-33.0822,
2.5720,0.2801,0.3389,0.7735,0.4495,0.0929,-2.3879,0.2718,-0.4802,-1.9112,-12.9352,-20.2305,-33.0822,
2.5730,-0.4649,0.5680,1.1364,0.4495,0.0929,-2.3879,0.2718,-0.4802,-1.9112,-12.9352,-20.2305,-33.0822,
2.5740,-0.4649,0.5680,1.1364,0.4495,0.0929,-2.3879,-0.1106,-0.8125,-2.5099,-12.9352,-20.2305,-33.0822,
2.6110,-1.2144,0.5716,1.2464,0.4495,0.0929,-2.3879,-0.1106,-0.8125,-2.5099,-12.9352,-20.2305,-33.0822,
2.6120,-1.2144,0.5716,1.2464,1.0937,-0.3443,-1.8001,-0.1106,-0.8125,-2.5099,-12.9352,-20.2305,-33.0822,
2.6130,-1.2144,0.5716,1.2464,1.0937,-0.3443,-1.8001,-0.4680,-0.6943,-3.0392,-12.9352,-20.2305,-33.0822,
2.6140,-0.4892,0.4236,0.9756,1.0937,-0.3443,-1.8001,-0.4680,-0.6943,-3.0392,-12.9352,-20.2305,-33.0822,
2.6170,-0.4892,0.4236,0.9756,1.0937,-0.3443,-1.8001,-0.4680,-0.6943,-3.0392,-11.9700,-21.4266,-32.6604,
2.6380,0.2557,0.3301,0.8313,1.0937,-0.3443,-1.8001,-0.4680,-0.6943,-3.0392,-11.9700,-21.4266,-32.6604,
2.6400,0.2557,0.3301,0.8313,1.0937,-0.3443,-1.8001,-0.0382,-0.9371,-0.1626,-11.9700,-21.4266,-32.6604,
2.6840,0.2980,0.2633,0.9107,1.0937,-0.3443,-1.8001,-0.0382,-0.9371,-0.1626,-11.9700,-21.4266,-32.6604,
2.6850,-0.0195,0.4145,0.8443,1.0937,-0.3443,-1.8001,-0.0382,-0.9371,-0.1626,-11.9700,-21.4266,-32.6604,
2.6860,-0.0195,0.4145,0.8443,1.0937,-0.3443,-1.8001,-0.0382,-0.9371,-0.1626,-11.0414,-22.6463,-32.3183,
2.6870,-0.0195,0.4145,0.8443,1.0937,-0.3443,-1.8001,-0.4289,-0.3923,-0.6098,-11.0414,-22.6463,-32.3183,
2.6890,-0.0195,0.4145,0.8443,-6.2545,1.7867,1.1437,-0.4289,-0.3923,-0.6098,-11.0414,-22.6463,-32.3183,
2.7050,-0.1364,0.3543,1.0732,-6.2545,1.7867,1.1437,-0.4289,-0.3923,-0.6098,-11.0414,-22.6463,-32.3183,
2.7490,-0.1364,0.3543,1.0732,-6.2545,1.7867,1.1437,-0.4103,-0.3336,-0.2313,-11.0414,-22.6463,-32.3183,
2.7500,-0.1364,0.3543,1.0732,-6.2545,1.7867,1.1437,-0.8730,-0.7356,-0.4803,-11.0414,-22.6463,-32.3183,
2.7510,0.0415,0.2810,0.8391,-6.2545,1.7867,1.1437,-0.8730,-0.7356,-0.4803,-11.0414,-22.6463,-32.3183,
2.7510,0.0415,0.2810,0.8391,0.4788,0.6252,-0.7214,-0.8730,-0.7356,-0.4803,-11.0414,-22.6463,-32.3183,
2.7520,0.1151,0.2953,0.9121,0.4788,0.6252,-0.7214,-0.8730,-0.7356,-0.4803,-11.0414,-22.6463,-32.3183,
2.7530,-0.0010,0.2928,0.9947,0.4788,0.6252,-0.7214,-0.8730,-0.7356,-0.4803,-11.0414,-22.6463,-32.3183,
2.7530,-0.0010,0.2928,0.9947,0.4788,0.6252,-0.7214,-0.8730,-0.7356,-0.4803,-10.0085,-23.7345,-31.9773,
2.7720,-0.0893,0.2276,1.0253,0.4788,0.6252,-0.7214,-0.8730,-0.7356,-0.4803,-10.0085,-23.7345,-31.9773,
2.8170,0.0368,0.1009,0.9710,0.4788,0.6252,-0.7214,-0.8730,-0.7356,-0.4803,-10.0085,-23.7345,-31.9773,
2.8180,0.0368,0.1009,0.9710,0.4788,0.6252,-0.7214,-0.8684,-0.4463,-0.7857,-10.0085,-23.7345,-31.9773,
2.8180,0.1141,0.0995,0.9497,0.4788,0.6252,-0.7214,-0.8684,-0.4463,-0.7857,-10.0085,-23.7345,-31.9773,
2.8190,0.1141,0.0995,0.9497,0.4788,0.6252,-0.7214,-0.8684,-0.4463,-0.7857,-8.9858,-24.1885,-31.9697,
2.8280,0.1141,0.0995,0.9497,-0.6368,0.6766,-0.5178,-0.8684,-0.4463,-0.7857,-8.9858,-24.1885,-31.9697,
2.8400,0.1141,0.0995,0.9497,-0.6368,0.6766,-0.5178,-1.0498,-0.4594,-0.8969,-8.9858,-24.1885,-31.9697,
2.8410,0.0894,0.1819,1.0118,-0.6368,0.6766,-0.5178,-1.0498,-0.4594,-0.8969,-8.9858,-24.1885,-31.9697,
2.8840,-0.0445,0.1298,1.1706,-0.6368,0.6766,-0.5178,-1.0498,-0.4594,-0.8969,-8.9858,-24.1885,-31.9697,
2.8850,-0.0445,0.1298,1.1706,-0.6368,0.6766,-0.5178,-1.1180,-0.4091,-0.9219,-8.9858,-24.1885,-31.9697,
2.8860,-0.0627,0.1142,1.1683,-0.6368,0.6766,-0.5178,-1.1180,-0.4091,-0.9219,-8.9858,-24.1885,-31.9697,
2.8870,0.0449,0.1092,1.1073,-0.6368,0.6766,-0.5178,-1.1180,-0.4091,-0.9219,-8.9858,-24.1885,-31.9697,
2.8870,0.0449,0.1092,1.1073,-0.6942,-0.1172,-0.1347,-1.1180,-0.4091,-0.9219,-8.9858,-24.1885,-31.9697,
2.8880,0.0449,0.1092,1.1073,-0.6942,-0.1172,-0.1347,-1.1180,-0.4091,-0.9219,-8.0501,-24.0583,-32.2243,
2.9060,0.1190,0.1139,1.1349,-0.6942,-0.1172,-0.1347,-1.1180,-0.4091,-0.9219,-8.0501,-24.0583,-32.2243,
2.9070,0.1190,0.1139,1.1349,-0.6942,-0.1172,-0.1347,-0.9469,-0.2301,-0.7396,-8.0501,-24.0583,-32.2243,
2.9510,0.0914,0.0704,1.1902,-0.6942,-0.1172,-0.1347,-0.9469,-0.2301,-0.7396,-8.0501,-24.0583,-32.2243,
2.9520,0.0914,0.0704,1.1902,-0.6942,-0.1172,-0.1347,-0.9158,-0.2050,-0.7793,-8.0501,-24.0583,-32.2243,
2.9530,0.0195,0.0657,1.1414,-0.6942,-0.1172,-0.1347,-0.9158,-0.2050,-0.7793,-8.0501,-24.0583,-32.2243,
2.9530,0.0195,0.0657,1.1414,-0.6942,-0.1172,-0.1347,-0.9158,-0.2050,-0.7793,-7.2602,-23.4876,-32.5722,
2.9620,0.0195,0.0657,1.1414,-1.2253,0.2739,1.2673,-0.9158,-0.2050,-0.7793,-7.2602,-23.4876,-32.5722,
2.9730,0.0250,0.0684,0.9725,-1.2253,0.2739,1.2673,-0.9158,-0.2050,-0.7793,-7.2602,-23.4876,-32.5722,
3.0180,0.0250,0.0684,0.9725,-1.2253,0.2739,1.2673,-0.9533,-0.5685,-0.2839,-7.2602,-23.4876,-32.5722,
3.0190,0.0352,0.1302,0.9364,-1.2253,0.2739,1.2673,-0.9533,-0.5685,-0.2839,-7.2602,-23.4876,-32.5722,
3.0200,-0.0027,0.1266,1.0694,-1.2253,0.2739,1.2673,-0.9533,-0.5685,-0.2839,-7.2602,-23.4876,-32.5722,
3.0200,-0.0027,0.1266,1.0694,-1.2253,0.2739,1.2673,-0.9533,-0.5685,-0.2839,-6.8197,-22.4500,-33.1346,
3.0210,-0.0027,0.1266,1.0694,-1.2253,0.2739,1.2673,-0.7603,-0.0948,-0.2885,-6.8197,-22.4500,-33.1346,
3.0220,0.0710,-0.0097,1.1151,-1.2253,0.2739,1.2673,-0.7603,-0.0948,-0.2885,-6.8197,-22.4500,-33.1346,
3.0230,0.0710,-0.0097,1.1151,-0.6274,0.3519,1.2444,-0.7603,-0.0948,-0.2885,-6.8197,-22.4500,-33.1346,
3.0850,0.0710,-0.0097,1.1151,-0.6274,0.3519,1.2444,-0.7603,-0.0948,-0.2885,-6.7524,-20.8822,-33.7284,
3.0860,0.1941,-0.0852,1.1502,-0.6274,0.3519,1.2444,-0.7603,-0.0948,-0.2885,-6.7524,-20.8822,-33.7284,
3.0870,0.2118,-0.0916,1.1957,-0.6274,0.3519,1.2444,-0.7603,-0.0948,-0.2885,-6.7524,-20.8822,-33.7284,
3.0880,0.1737,-0.0993,1.2041,-0.6274,0.3519,1.2444,-0.7603,-0.0948,-0.2885,-6.7524,-20.8822,-33.7284,
3.0880,0.1737,-0.0993,1.2041,-0.6274,0.3519,1.2444,-0.2243,-0.3324,0.0487,-6.7524,-20.8822,-33.7284,
3.0990,0.1737,-0.0993,1.2041,-1.1334,0.4545,0.1596,-0.2243,-0.3324,0.0487,-6.7524,-20.8822,-33.7284,
3.1050,0.0217,-0.0282,1.0759,-1.1334,0.4545,0.1596,-0.2243,-0.3324,0.0487,-6.7524,-20.8822,-33.7284,
3.1060,0.0217,-0.0282,1.0759,-1.1334,0.4545,0.1596,-0.1534,-0.2264,-0.1473,-6.7524,-20.8822,-33.7284,
3.1520,0.0217,-0.0282,1.0759,-1.1334,0.4545,0.1596,-0.3156,-0.0150,-0.3138,-6.7524,-20.8822,-33.7284,
3.1530,0.0050,-0.0016,0.9727,-1.1334,0.4545,0.1596,-0.3156,-0.0150,-0.3138,-6.7524,-20.8822,-33.7284,
3.1540,0.1908,-0.1682,0.9854,-1.1334,0.4545,0.1596,-0.3156,-0.0150,-0.3138,-6.7524,-20.8822,-33.7284,
3.1550,0.1908,-0.1682,0.9854,-1.1334,0.4545,0.1596,-0.3156,-0.0150,-0.3138,-7.0309,-19.1943,-34.3782,
3.1570,0.1908,-0.1682,0.9854,0.2452,-1.0101,1.5804,-0.3156,-0.0150,-0.3138,-7.0309,-19.1943,-34.3782,
3.1570,0.1785,-0.2175,1.0552,0.2452,-1.0101,1.5804,-0.3156,-0.0150,-0.3138,-7.0309,-19.1943,-34.3782,
3.2180,0.0061,-0.1188,1.0817,0.2452,-1.0101,1.5804,-0.3156,-0.0150,-0.3138,-7.0309,-19.1943,-34.3782,
3.2190,0.0061,-0.1188,1.0817,0.2452,-1.0101,1.5804,-0.2279,0.0604,-0.5087,-7.0309,-19.1943,-34.3782,
3.2190,0.0061,-0.1188,1.0817,0.2452,-1.0101,1.5804,-0.1574,-0.0105,-0.2939,-7.0309,-19.1943,-34.3782,
3.2200,0.0557,-0.1128,1.0801,0.2452,-1.0101,1.5804,-0.1574,-0.0105,-0.2939,-7.0309,-19.1943,-34.3782,
3.2210,0.2133,-0.2126,1.0488,0.2452,-1.0101,1.5804,-0.1574,-0.0105,-0.2939,-7.0309,-19.1943,-34.3782,
3.2210,0.2133,-0.2126,1.0488,0.2452,-1.0101,1.5804,-0.1574,-0.0105,-0.2939,-7.1038,-17.5262,-35.0093,
3.2360,0.2133,-0.2126,1.0488,-0.4675,-1.1396,-0.0132,-0.1574,-0.0105,-0.2939,-7.1038,-17.5262,-35.0093,
3.2390,0.1243,-0.0944,0.9793,-0.4675,-1.1396,-0.0132,-0.1574,-0.0105,-0.2939,-7.1038,-17.5262,-35.0093,
3.2840,0.0402,0.0348,0.9446,-0.4675,-1.1396,-0.0132,-0.1574,-0.0105,-0.2939,-7.1038,-17.5262,-35.0093,
3.2850,0.0402,0.0348,0.9446,-0.4675,-1.1396,-0.0132,-0.1610,-0.2090,-0.7582,-7.1038,-17.5262,-35.0093,
3.2860,0.2139,0.0802,0.9188,-0.4675,-1.1396,-0.0132,-0.1610,-0.2090,-0.7582,-7.1038,-17.5262,-35.0093,
3.2870,0.2139,0.0802,0.9188,-0.4675,-1.1396,-0.0132,-0.1610,-0.2090,-0.7582,-7.1569,-15.9343,-35.6058,
3.2960,0.2139,0.0802,0.9188,-0.4675,-1.1396,-0.0132,-0.2713,0.1349,-0.7677,-7.1569,-15.9343,-35.6058,
3.2970,0.3447,0.0137,0.9969,-0.4675,-1.1396,-0.0132,-0.2713,0.1349,-0.7677,-7.1569,-15.9343,-35.6058,
3.2980,0.3447,0.0137,0.9969,-0.4550,-1.3789,0.4452,-0.2713,0.1349,-0.7677,-7.1569,-15.9343,-35.6058,
3.3530,0.2029,-0.0215,1.0920,-0.4550,-1.3789,0.4452,-0.2713,0.1349,-0.7677,-7.1569,-15.9343,-35.6058,
3.3540,0.2029,-0.0215,1.0920,-0.4550,-1.3789,0.4452,0.0561,0.3380,-0.8602,-7.1569,-15.9343,-35.6058,
3.3560,0.2585,0.0560,1.1217,-0.4550,-1.3789,0.4452,0.0561,0.3380,-0.8602,-7.1569,-15.9343,-35.6058,
3.3570,0.2585,0.0560,1.1217,-0.4550,-1.3789,0.4452,0.0561,0.3380,-0.8602,-6.9082,-14.8139,-36.0670,
3.3720,0.2585,0.0560,1.1217,-0.4550,-1.3789,0.4452,0.0207,0.3539,-0.6431,-6.9082,-14.8139,-36.0670,
3.3740,0.4615,0.1833,0.9986,-0.4550,-1.3789,0.4452,0.0207,0.3539,-0.6431,-6.9082,-14.8139,-36.0670,
3.3740,0.3360,0.2408,0.9019,-0.4550,-1.3789,0.4452,0.0207,0.3539,-0.6431,-6.9082,-14.8139,-36.0670,
3.3750,0.3360,0.2408,0.9019,0.5285,0.2047,-0.5642,0.0207,0.3539,-0.6431,-6.9082,-14.8139,-36.0670,
3.4170,-0.0279,0.1460,0.9225,0.5285,0.2047,-0.5642,0.0207,0.3539,-0.6431,-6.9082,-14.8139,-36.0670,
3.4190,-0.1929,-0.0211,0.8808,0.5285,0.2047,-0.5642,0.0207,0.3539,-0.6431,-6.9082,-14.8139,-36.0670,
3.4200,-0.1929,-0.0211,0.8808,0.5285,0.2047,-0.5642,-0.4445,0.4474,-0.7799,-6.9082,-14.8139,-36.0670,
3.4210,-0.1929,-0.0211,0.8808,0.5285,0.2047,-0.5642,-0.4445,0.4474,-0.7799,-6.4412,-13.8829,-36.3267,
3.4300,-0.1929,-0.0211,0.8808,2.1693,1.0973,0.2955,-0.4445,0.4474,-0.7799,-6.4412,-13.8829,-36.3267,
3.4320,-0.1631,-0.2748,0.8392,2.1693,1.0973,0.2955,-0.4445,0.4474,-0.7799,-6.4412,-13.8829,-36.3267,
3.4860,-0.1631,-0.2748,0.8392,2.1693,1.0973,0.2955,-0.5502,0.5063,-0.9036,-6.4412,-13.8829,-36.3267,
3.4880,-0.0821,-0.3500,1.1705,2.1693,1.0973,0.2955,-0.5502,0.5063,-0.9036,-6.4412,-13.8829,-36.3267,
3.4890,0.0590,-0.0879,1.3725,2.1693,1.0973,0.2955,-0.5502,0.5063,-0.9036,-6.4412,-13.8829,-36.3267,
3.4900,0.0590,-0.0879,1.3725,2.1693,1.0973,0.2955,-0.5502,0.5063,-0.9036,-5.8327,-13.0444,-36.6129,
3.5050,0.1819,-0.0045,1.1920,2.1693,1.0973,0.2955,-0.5502,0.5063,-0.9036,-5.8327,-13.0444,-36.6129,
3.5060,0.1819,-0.0045,1.1920,2.1693,1.0973,0.2955,-0.1372,0.2400,-0.0078,-5.8327,-13.0444,-36.6129,
3.5080,0.1819,-0.0045,1.1920,-1.4570,0.1718,-1.3224,-0.1372,0.2400,-0.0078,-5.8327,-13.0444,-36.6129,
3.5520,0.1728,-0.0191,1.0338,-1.4570,0.1718,-1.3224,-0.1372,0.2400,-0.0078,-5.8327,-13.0444,-36.6129,
3.5540,0.1728,-0.0191,1.0338,-1.4570,0.1718,-1.3224,0.1374,0.0069,0.3194,-5.8327,-13.0444,-36.6129,
3.5550,0.1728,-0.0191,1.0338,-1.4570,0.1718,-1.3224,0.1374,0.0069,0.3194,-5.0081,-12.4672,-36.8051,
3.5550,0.1909,0.0044,0.9003,-1.4570,0.1718,-1.3224,0.1374,0.0069,0.3194,-5.0081,-12.4672,-36.8051,
3.5560,0.2127,0.0936,0.9810,-1.4570,0.1718,-1.3224,0.1374,0.0069,0.3194,-5.0081,-12.4672,-36.8051,
3.5680,0.2127,0.0936,0.9810,-0.0485,-0.9081,1.9739,0.1374,0.0069,0.3194,-5.0081,-12.4672,-36.8051,
3.5700,0.2127,0.0936,0.9810,-0.0485,-0.9081,1.9739,-0.3086,0.0305,-0.2365,-5.0081,-12.4672,-36.8051,
3.5710,0.1850,0.0951,1.0716,-0.0485,-0.9081,1.9739,-0.3086,0.0305,-0.2365,-5.0081,-12.4672,-36.8051,
3.6190,0.2759,-0.0448,1.0909,-0.0485,-0.9081,1.9739,-0.3086,0.0305,-0.2365,-5.0081,-12.4672,-36.8051,
3.6220,0.2759,-0.0448,1.0909,-0.0485,-0.9081,1.9739,-0.3086,0.0305,-0.2365,-4.1815,-12.0859,-37.0093,
3.6230,0.2759,-0.0448,1.0909,-0.0485,-0.9081,1.9739,-0.2105,0.0430,-0.5151,-4.1815,-12.0859,-37.0093,
3.6240,0.3581,-0.1564,1.1121,-0.0485,-0.9081,1.9739,-0.2105,0.0430,-0.5151,-4.1815,-12.0859,-37.0093,
3.6390,0.2051,-0.1700,1.0941,-0.0485,-0.9081,1.9739,-0.2105,0.0430,-0.5151,-4.1815,-12.0859,-37.0093,
3.6450,0.2051,-0.1700,1.0941,1.1275,0.8941,-0.3555,-0.2105,0.0430,-0.5151,-4.1815,-12.0859,-37.0093,
3.6850,-0.1281,-0.2070,1.0078,1.1275,0.8941,-0.3555,-0.2105,0.0430,-0.5151,-4.1815,-12.0859,-37.0093,
3.6870,-0.1281,-0.2070,1.0078,1.1275,0.8941,-0.3555,0.0980,0.1334,-1.3003,-4.1815,-12.0859,-37.0093,
3.6880,-0.1281,-0.2070,1.0078,1.1275,0.8941,-0.3555,0.0980,0.1334,-1.3003,-3.2054,-11.8526,-37.1533,
3.6890,-0.1281,-0.2070,1.0078,1.1275,0.8941,-0.3555,0.2675,0.1539,-0.3361,-3.2054,-11.8526,-37.1533,
3.6900,-0.4576,-0.3161,0.9148,1.1275,0.8941,-0.3555,0.2675,0.1539,-0.3361,-3.2054,-11.8526,-37.1533,
3.6910,-0.4875,-0.2788,0.8950,1.1275,0.8941,-0.3555,0.2675,0.1539,-0.3361,-3.2054,-11.8526,-37.1533,
3.7040,-0.0920,-0.0294,0.9568,1.1275,0.8941,-0.3555,0.2675,0.1539,-0.3361,-3.2054,-11.8526,-37.1533,
3.7060,-0.0920,-0.0294,0.9568,1.6717,-1.0369,0.6661,0.2675,0.1539,-0.3361,-3.2054,-11.8526,-37.1533,
3.7520,-0.0920,-0.0294,0.9568,1.6717,-1.0369,0.6661,-0.1064,0.3768,0.9577,-3.2054,-11.8526,-37.1533,
3.7540,0.2498,0.0857,0.9863,1.6717,-1.0369,0.6661,-0.1064,0.3768,0.9577,-3.2054,-11.8526,-37.1533,
3.7550,0.2515,-0.0145,1.0497,1.6717,-1.0369,0.6661,-0.1064,0.3768,0.9577,-3.2054,-11.8526,-37.1533,
3.7560,0.2515,-0.0145,1.0497,1.6717,-1.0369,0.6661,-0.1064,0.3768,0.9577,-2.1825,-11.6344,-37.2195,
3.7740,0.1293,-0.1639,1.0870,1.6717,-1.0369,0.6661,-0.1064,0.3768,0.9577,-2.1825,-11.6344,-37.2195,
3.7760,0.1293,-0.1639,1.0870,1.6717,-1.0369,0.6661,-0.2258,0.3466,0.6367,-2.1825,-11.6344,-37.2195,
3.7820,0.1293,-0.1639,1.0870,-3.5241,-1.6142,-0.9056,-0.2258,0.3466,0.6367,-2.1825,-11.6344,-37.2195,
3.8180,0.1293,-0.1639,1.0870,-3.5241,-1.6142,-0.9056,-0.0502,0.2351,0.4339,-2.1825,-11.6344,-37.2195,
3.8200,0.1293,-0.1639,1.0870,-3.5241,-1.6142,-0.9056,-0.0502,0.2351,0.4339,-1.1324,-11.3888,-37.3859,
3.8210,0.1136,-0.1286,1.1022,-3.5241,-1.6142,-0.9056,-0.0502,0.2351,0.4339,-1.1324,-11.3888,-37.3859,
3.8210,0.0981,-0.0520,1.0979,-3.5241,-1.6142,-0.9056,-0.0502,0.2351,0.4339,-1.1324,-11.3888,-37.3859,
3.8390,0.0353,-0.0448,1.0594,-3.5241,-1.6142,-0.9056,-0.0502,0.2351,0.4339,-1.1324,-11.3888,-37.3859,
3.8410,0.0016,-0.0491,1.0192,-3.5241,-1.6142,-0.9056,-0.0502,0.2351,0.4339,-1.1324,-11.3888,-37.3859,
3.8420,0.0016,-0.0491,1.0192,-3.5241,-1.6142,-0.9056,0.1395,0.2159,0.2403,-1.1324,-11.3888,-37.3859,
3.8420,0.0016,-0.0491,1.0192,1.7370,-0.0680,0.2647,0.1395,0.2159,0.2403,-1.1324,-11.3888,-37.3859,
3.8840,0.0082,-0.0833,0.9894,1.7370,-0.0680,0.2647,0.1395,0.2159,0.2403,-1.1324,-11.3888,-37.3859,
3.8850,0.0082,-0.0833,0.9894,1.7370,-0.0680,0.2647,0.1374,0.1606,0.1471,-1.1324,-11.3888,-37.3859,
3.8860,-0.0645,-0.1057,0.9808,1.7370,-0.0680,0.2647,0.1374,0.1606,0.1471,-1.1324,-11.3888,-37.3859,
3.8870,-0.0645,-0.1057,0.9808,1.7370,-0.0680,0.2647,0.1374,0.1606,0.1471,-0.3522,-11.1402,-37.3944,
3.9070,-0.1052,-0.1066,0.9975,1.7370,-0.0680,0.2647,0.1374,0.1606,0.1471,-0.3522,-11.1402,-37.3944,
3.9190,-0.1052,-0.1066,0.9975,0.4499,-0.2006,0.3982,0.1374,0.1606,0.1471,-0.3522,-11.1402,-37.3944,
3.9500,-0.1191,-0.0656,1.0034,0.4499,-0.2006,0.3982,0.1374,0.1606,0.1471,-0.3522,-11.1402,-37.3944,
3.9510,-0.1191,-0.0656,1.0034,0.4499,-0.2006,0.3982,0.0873,0.0879,0.3633,-0.3522,-11.1402,-37.3944,
3.9520,-0.1159,-0.0857,0.9787,0.4499,-0.2006,0.3982,0.0873,0.0879,0.3633,-0.3522,-11.1402,-37.3944,
3.9530,-0.1159,-0.0857,0.9787,0.4499,-0.2006,0.3982,0.0873,0.0879,0.3633,0.2018,-11.0510,-37.4980,
3.9740,-0.1159,-0.0857,0.9787,0.4499,-0.2006,0.3982,0.0607,-0.0331,0.7632,0.2018,-11.0510,-37.4980,
3.9760,-0.1016,-0.1948,0.9543,0.4499,-0.2006,0.3982,0.0607,-0.0331,0.7632,0.2018,-11.0510,-37.4980,
3.9770,-0.0100,-0.1078,1.0564,0.4499,-0.2006,0.3982,0.0607,-0.0331,0.7632,0.2018,-11.0510,-37.4980,
3.9780,-0.0100,-0.1078,1.0564,-0.7032,-0.6056,-0.3151,0.0607,-0.0331,0.7632,0.2018,-11.0510,-37.4980,
4.0170,0.1068,0.0571,1.0780,-0.7032,-0.6056,-0.3151,0.0607,-0.0331,0.7632,0.2018,-11.0510,-37.4980,
4.0190,0.1068,0.0571,1.0780,-0.7032,-0.6056,-0.3151,0.0170,-0.1235,0.8105,0.2018,-11.0510,-37.4980,
4.0190,0.1068,0.0571,1.0780,-0.7032,-0.6056,-0.3151,0.0170,-0.1235,0.8105,0.4689,-11.0583,-37.4762,
4.0200,0.1507,0.1826,1.0178,-0.7032,-0.6056,-0.3151,0.0170,-0.1235,0.8105,0.4689,-11.0583,-37.4762,
4.0400,0.0897,0.2046,1.0001,-0.7032,-0.6056,-0.3151,0.0170,-0.1235,0.8105,0.4689,-11.0583,-37.4762,
4.0420,0.0897,0.2046,1.0001,-0.7032,-0.6056,-0.3151,0.1175,-0.1436,0.1966,0.4689,-11.0583,-37.4762,
4.0550,0.0897,0.2046,1.0001,-0.9822,-0.8772,-0.2553,0.1175,-0.1436,0.1966,0.4689,-11.0583,-37.4762,
4.0840,0.0474,0.1193,0.9792,-0.9822,-0.8772,-0.2553,0.1175,-0.1436,0.1966,0.4689,-11.0583,-37.4762,
4.0850,0.0474,0.1193,0.9792,-0.9822,-0.8772,-0.2553,0.1175,-0.1436,0.1966,0.5893,-11.0933,-37.5127,
4.0860,0.0794,0.0743,1.0065,-0.9822,-0.8772,-0.2553,0.1175,-0.1436,0.1966,0.5893,-11.0933,-37.5127,
4.0870,0.0794,0.0743,1.0065,-0.9822,-0.8772,-0.2553,-0.0080,-0.1109,-0.1919,0.5893,-11.0933,-37.5127,
4.1060,0.0647,0.0803,1.0428,-0.9822,-0.8772,-0.2553,-0.0080,-0.1109,-0.1919,0.5893,-11.0933,-37.5127,
4.1140,0.0022,0.0447,1.0153,-0.9822,-0.8772,-0.2553,-0.0080,-0.1109,-0.1919,0.5893,-11.0933,-37.5127,
4.1140,0.0022,0.0447,1.0153,0.8196,1.7006,0.0286,-0.0080,-0.1109,-0.1919,0.5893,-11.0933,-37.5127,
4.1150,0.0022,0.0447,1.0153,0.8196,1.7006,0.0286,-0.0205,-0.0254,-0.3236,0.5893,-11.0933,-37.5127,
4.1510,0.0005,-0.0607,1.0188,0.8196,1.7006,0.0286,-0.0205,-0.0254,-0.3236,0.5893,-11.0933,-37.5127,
4.1530,0.0005,-0.0607,1.0188,0.8196,1.7006,0.0286,-0.0205,-0.0254,-0.3236,0.7422,-11.1942,-37.5136,
4.1730,0.0336,-0.1380,1.0453,0.8196,1.7006,0.0286,-0.0205,-0.0254,-0.3236,0.7422,-11.1942,-37.5136,
4.1750,0.0336,-0.1380,1.0453,0.8196,1.7006,0.0286,-0.1021,-0.0105,-0.3016,0.7422,-11.1942,-37.5136,
4.1760,0.0144,-0.2135,1.0628,0.8196,1.7006,0.0286,-0.1021,-0.0105,-0.3016,0.7422,-11.1942,-37.5136,
4.1920,0.0144,-0.2135,1.0628,0.2126,1.0208,-0.0874,-0.1021,-0.0105,-0.3016,0.7422,-11.1942,-37.5136,
4.2170,0.0144,-0.2135,1.0628,0.2126,1.0208,-0.0874,-0.0819,-0.0572,-0.0985,0.7422,-11.1942,-37.5136,
4.2190,0.0144,-0.2135,1.0628,0.2126,1.0208,-0.0874,-0.0819,-0.0572,-0.0985,0.7298,-11.2164,-37.5797,
4.2200,-0.0597,-0.1805,1.0547,0.2126,1.0208,-0.0874,-0.0819,-0.0572,-0.0985,0.7298,-11.2164,-37.5797,
4.2200,-0.0407,-0.0730,1.0290,0.2126,1.0208,-0.0874,-0.0819,-0.0572,-0.0985,0.7298,-11.2164,-37.5797,
4.2390,0.0693,-0.0377,1.0228,0.2126,1.0208,-0.0874,-0.0819,-0.0572,-0.0985,0.7298,-11.2164,-37.5797,
4.2410,0.0693,-0.0377,1.0228,0.2126,1.0208,-0.0874,0.0231,0.0143,0.1923,0.7298,-11.2164,-37.5797,
4.2530,0.1315,-0.0245,1.0163,0.2126,1.0208,-0.0874,0.0231,0.0143,0.1923,0.7298,-11.2164,-37.5797,
4.2550,0.1315,-0.0245,1.0163,-0.1730,-1.1245,0.2172,0.0231,0.0143,0.1923,0.7298,-11.2164,-37.5797,
4.2850,0.1315,-0.0245,1.0163,-0.1730,-1.1245,0.2172,0.0231,0.0143,0.1923,0.7033,-11.2788,-37.6616,
4.2870,0.1315,-0.0245,1.0163,-0.1730,-1.1245,0.2172,0.0369,0.0030,0.0704,0.7033,-11.2788,-37.6616,
4.2880,0.1334,-0.0344,1.0133,-0.1730,-1.1245,0.2172,0.0369,0.0030,0.0704,0.7033,-11.2788,-37.6616,
4.3070,0.0977,-0.0781,1.0429,-0.1730,-1.1245,0.2172,0.0369,0.0030,0.0704,0.7033,-11.2788,-37.6616,
4.3290,0.0868,-0.1012,1.0648,-0.1730,-1.1245,0.2172,0.0369,0.0030,0.0704,0.7033,-11.2788,-37.6616,
4.3300,0.0868,-0.1012,1.0648,-0.1730,-1.1245,0.2172,0.0100,0.0076,-0.0792,0.7033,-11.2788,-37.6616,
4.3310,0.0868,-0.1012,1.0648,0.0989,-0.2792,0.0263,0.0100,0.0076,-0.0792,0.7033,-11.2788,-37.6616,
4.3510,0.0868,-0.1012,1.0648,0.0989,-0.2792,0.0263,0.0100,0.0076,-0.0792,0.6487,-11.3776,-37.6182,
4.3520,0.0452,-0.0872,1.0448,0.0989,-0.2792,0.0263,0.0100,0.0076,-0.0792,0.6487,-11.3776,-37.6182,
4.3530,0.0219,-0.1142,1.0071,0.0989,-0.2792,0.0263,0.0100,0.0076,-0.0792,0.6487,-11.3776,-37.6182,
4.3540,0.0219,-0.1142,1.0071,0.0989,-0.2792,0.0263,0.0638,0.0222,-0.0914,0.6487,-11.3776,-37.6182,
4.3720,0.0286,-0.1241,1.0264,0.0989,-0.2792,0.0263,0.0638,0.0222,-0.0914,0.6487,-11.3776,-37.6182,
4.3860,0.0039,-0.1037,1.0327,0.0989,-0.2792,0.0263,0.0638,0.0222,-0.0914,0.6487,-11.3776,-37.6182,
4.3870,0.0039,-0.1037,1.0327,0.7281,-0.4519,0.1838,0.0638,0.0222,-0.0914,0.6487,-11.3776,-37.6182,
4.3880,0.0039,-0.1037,1.0327,0.7281,-0.4519,0.1838,0.0775,0.0412,-0.0972,0.6487,-11.3776,-37.6182,
4.4180,0.0007,-0.1570,1.0216,0.7281,-0.4519,0.1838,0.0775,0.0412,-0.0972,0.6487,-11.3776,-37.6182,
4.4190,0.0007,-0.1570,1.0216,0.7281,-0.4519,0.1838,0.0775,0.0412,-0.0972,0.6082,-11.4582,-37.6375,
4.4390,-0.0039,-0.1029,1.0218,0.7281,-0.4519,0.1838,0.0775,0.0412,-0.0972,0.6082,-11.4582,-37.6375,
4.4410,-0.0039,-0.1029,1.0218,0.7281,-0.4519,0.1838,0.1117,0.0204,0.0188,0.6082,-11.4582,-37.6375,
4.4650,-0.0039,-0.1029,1.0218,-0.0300,-0.8588,-0.0021,0.1117,0.0204,0.0188,0.6082,-11.4582,-37.6375,
4.4670,-0.0463,-0.0028,1.0381,-0.0300,-0.8588,-0.0021,0.1117,0.0204,0.0188,0.6082,-11.4582,-37.6375,
4.4850,-0.0790,0.0284,1.0379,-0.0300,-0.8588,-0.0021,0.1117,0.0204,0.0188,0.6082,-11.4582,-37.6375,
4.4870,-0.0790,0.0284,1.0379,-0.0300,-0.8588,-0.0021,0.0732,-0.0297,0.2137,0.6082,-11.4582,-37.6375,
4.4880,-0.0790,0.0284,1.0379,-0.0300,-0.8588,-0.0021,0.0732,-0.0297,0.2137,0.4703,-11.5215,-37.5949,
4.5050,0.0734,-0.0521,0.9745,-0.0300,-0.8588,-0.0021,0.0732,-0.0297,0.2137,0.4703,-11.5215,-37.5949,
4.5070,0.0929,0.0291,1.0039,-0.0300,-0.8588,-0.0021,0.0732,-0.0297,0.2137,0.4703,-11.5215,-37.5949,
4.5080,0.0929,0.0291,1.0039,-0.0300,-0.8588,-0.0021,0.0586,-0.0489,0.2687,0.4703,-11.5215,-37.5949,
4.5240,0.0929,0.0291,1.0039,-0.4882,-0.5007,0.0565,0.0586,-0.0489,0.2687,0.4703,-11.5215,-37.5949,
4.5260,-0.1105,0.1815,1.0056,-0.4882,-0.5007,0.0565,0.0586,-0.0489,0.2687,0.4703,-11.5215,-37.5949,
4.5510,-0.1105,0.1815,1.0056,-0.4882,-0.5007,0.0565,0.0494,0.0955,0.0967,0.4703,-11.5215,-37.5949,
4.5520,-0.1105,0.1815,1.0056,-0.4882,-0.5007,0.0565,0.0494,0.0955,0.0967,0.4285,-11.6209,-37.5897,
4.5530,-0.0793,0.2399,0.9655,-0.4882,-0.5007,0.0565,0.0494,0.0955,0.0967,0.4285,-11.6209,-37.5897,
4.5730,0.1450,0.1702,1.0205,-0.4882,-0.5007,0.0565,0.0494,0.0955,0.0967,0.4285,-11.6209,-37.5897,
4.6020,0.1450,0.1702,1.0205,-0.4882,-0.5007,0.0565,0.0195,0.0949,0.1563,0.4285,-11.6209,-37.5897,
4.6030,0.1450,0.1702,1.0205,-0.1164,0.6369,-0.2376,0.0195,0.0949,0.1563,0.4285,-11.6209,-37.5897,
4.6040,0.1353,0.0981,1.0889,-0.1164,0.6369,-0.2376,0.0195,0.0949,0.1563,0.4285,-11.6209,-37.5897,
4.6180,0.1353,0.0981,1.0889,-0.1164,0.6369,-0.2376,0.0195,0.0949,0.1563,0.4838,-11.7151,-37.5551,
4.6190,0.0728,0.0079,1.0390,-0.1164,0.6369,-0.2376,0.0195,0.0949,0.1563,0.4838,-11.7151,-37.5551,
4.6380,-0.0028,-0.1121,1.0346,-0.1164,0.6369,-0.2376,0.0195,0.0949,0.1563,0.4838,-11.7151,-37.5551,
4.6400,-0.0028,-0.1121,1.0346,-0.1164,0.6369,-0.2376,-0.0080,0.0002,-0.2909,0.4838,-11.7151,-37.5551,
4.6610,-0.0809,-0.1348,1.0371,-0.1164,0.6369,-0.2376,-0.0080,0.0002,-0.2909,0.4838,-11.7151,-37.5551,
4.6630,-0.0809,-0.1348,1.0371,-0.1164,0.6369,-0.2376,-0.0951,-0.0441,-0.2472,0.4838,-11.7151,-37.5551,
4.6640,-0.0809,-0.1348,1.0371,0.4861,1.6555,0.0544,-0.0951,-0.0441,-0.2472,0.4838,-11.7151,-37.5551,
4.6640,-0.0636,-0.1481,1.0111,0.4861,1.6555,0.0544,-0.0951,-0.0441,-0.2472,0.4838,-11.7151,-37.5551,
4.6840,-0.0636,-0.1481,1.0111,0.4861,1.6555,0.0544,-0.0951,-0.0441,-0.2472,0.5783,-11.7587,-37.5159,
4.6860,-0.0244,-0.0900,1.0144,0.4861,1.6555,0.0544,-0.0951,-0.0441,-0.2472,0.5783,-11.7587,-37.5159,
4.7050,-0.0068,-0.0168,1.0569,0.4861,1.6555,0.0544,-0.0951,-0.0441,-0.2472,0.5783,-11.7587,-37.5159,
4.7070,-0.0068,-0.0168,1.0569,0.4861,1.6555,0.0544,-0.0447,-0.0059,0.0188,0.5783,-11.7587,-37.5159,
4.7390,-0.0068,-0.0168,1.0569,-0.5294,-0.9325,0.0288,-0.0447,-0.0059,0.0188,0.5783,-11.7587,-37.5159,
4.7430,-0.0343,0.0164,1.0037,-0.5294,-0.9325,0.0288,-0.0447,-0.0059,0.0188,0.5783,-11.7587,-37.5159,
4.7500,-0.0343,0.0164,1.0037,-0.5294,-0.9325,0.0288,-0.0266,-0.0520,0.2048,0.5783,-11.7587,-37.5159,
4.7510,0.0264,-0.0145,1.0059,-0.5294,-0.9325,0.0288,-0.0266,-0.0520,0.2048,0.5783,-11.7587,-37.5159,
4.7520,0.0264,-0.0145,1.0059,-0.5294,-0.9325,0.0288,-0.0266,-0.0520,0.2048,0.5502,-11.8171,-37.4692,
4.7720,0.1126,-0.0777,1.0236,-0.5294,-0.9325,0.0288,-0.0266,-0.0520,0.2048,0.5502,-11.8171,-37.4692,
4.7960,0.0851,-0.0774,1.0569,-0.5294,-0.9325,0.0288,-0.0266,-0.0520,0.2048,0.5502,-11.8171,-37.4692,
4.7970,0.0851,-0.0774,1.0569,-0.4189,-0.0212,-0.0145,-0.0266,-0.0520,0.2048,0.5502,-11.8171,-37.4692,
4.7980,0.0432,-0.0274,1.0113,-0.4189,-0.0212,-0.0145,-0.0266,-0.0520,0.2048,0.5502,-11.8171,-37.4692,
4.7990,0.0432,-0.0274,1.0113,-0.4189,-0.0212,-0.0145,-0.0462,-0.0248,0.2051,0.5502,-11.8171,-37.4692,
4.8180,0.0432,-0.0274,1.0113,-0.4189,-0.0212,-0.0145,0.0063,0.0320,0.0164,0.5502,-11.8171,-37.4692,
4.8190,0.0456,-0.0224,1.0048,-0.4189,-0.0212,-0.0145,0.0063,0.0320,0.0164,0.5502,-11.8171,-37.4692,
4.8200,0.0456,-0.0224,1.0048,-0.4189,-0.0212,-0.0145,0.0063,0.0320,0.0164,0.5208,-11.8943,-37.3979,
4.8390,0.0622,-0.0437,1.0633,-0.4189,-0.0212,-0.0145,0.0063,0.0320,0.0164,0.5208,-11.8943,-37.3979,
4.8750,0.0706,-0.0450,1.0466,-0.4189,-0.0212,-0.0145,0.0063,0.0320,0.0164,0.5208,-11.8943,-37.3979,
4.8770,0.0684,-0.0436,1.0142,-0.4189,-0.0212,-0.0145,0.0063,0.0320,0.0164,0.5208,-11.8943,-37.3979,
4.8770,0.0684,-0.0436,1.0142,0.5823,-0.3099,0.0319,0.0063,0.0320,0.0164,0.5208,-11.8943,-37.3979,
4.8780,0.0684,-0.0436,1.0142,0.5823,-0.3099,0.0319,-0.0156,0.0176,-0.0163,0.5208,-11.8943,-37.3979,
4.8840,0.0684,-0.0436,1.0142,0.5823,-0.3099,0.0319,-0.0156,0.0176,-0.0163,0.4328,-11.9472,-37.4043,
4.9050,0.0332,-0.0435,1.0201,0.5823,-0.3099,0.0319,-0.0156,0.0176,-0.0163,0.4328,-11.9472,-37.4043,
4.9070,0.0332,-0.0435,1.0201,0.5823,-0.3099,0.0319,-0.0034,-0.0150,-0.0059,0.4328,-11.9472,-37.4043,
4.9340,0.0332,-0.0435,1.0201,0.3950,-0.1294,0.1124,-0.0034,-0.0150,-0.0059,0.4328,-11.9472,-37.4043,
4.9360,0.0332,-0.0435,1.0201,0.3950,-0.1294,0.1124,0.0143,0.0128,-0.0609,0.4328,-11.9472,-37.4043,
4.9370,0.0032,-0.0647,1.0382,0.3950,-0.1294,0.1124,0.0143,0.0128,-0.0609,0.4328,-11.9472,-37.4043,
4.9370,-0.0217,-0.0466,1.0285,0.3950,-0.1294,0.1124,0.0143,0.0128,-0.0609,0.4328,-11.9472,-37.4043,
4.9510,-0.0217,-0.0466,1.0285,0.3950,-0.1294,0.1124,0.0143,0.0128,-0.0609,0.3077,-12.0111,-37.3998,
4.9730,-0.0217,-0.0466,1.0285,0.3950,-0.1294,0.1124,-0.0105,0.0121,-0.0740,0.3077,-12.0111,-37.3998,
4.9750,-0.0088,-0.0163,1.0134,0.3950,-0.1294,0.1124,-0.0105,0.0121,-0.0740,0.3077,-12.0111,-37.3998,
4.9750,0.0029,0.0021,1.0168,0.3950,-0.1294,0.1124,-0.0105,0.0121,-0.0740,0.3077,-12.0111,-37.3998,
5.0130,0.0029,0.0021,1.0168,-0.0673,-0.2271,0.0212,-0.0105,0.0121,-0.0740,0.3077,-12.0111,-37.3998,
5.0150,0.0015,0.0004,1.0247,-0.0673,-0.2271,0.0212,-0.0105,0.0121,-0.0740,0.3077,-12.0111,-37.3998,
5.0170,0.0015,0.0004,1.0247,-0.0673,-0.2271,0.0212,-0.0459,0.0338,-0.0105,0.3077,-12.0111,-37.3998,
5.0180,0.0217,-0.0315,1.0130,-0.0673,-0.2271,0.0212,-0.0459,0.0338,-0.0105,0.3077,-12.0111,-37.3998,
5.0180,0.0217,-0.0315,1.0130,-0.0673,-0.2271,0.0212,-0.0459,0.0338,-0.0105,0.3217,-11.9709,-37.3840,
5.0390,0.0414,-0.0447,1.0525,-0.0673,-0.2271,0.0212,-0.0459,0.0338,-0.0105,0.3217,-11.9709,-37.3840,
5.0710,0.0414,-0.0447,1.0525,-0.1602,0.2030,-0.0768,-0.0459,0.0338,-0.0105,0.3217,-11.9709,-37.3840,
5.0720,0.0414,-0.0447,1.0525,-0.1602,0.2030,-0.0768,-0.0263,0.0329,0.0075,0.3217,-11.9709,-37.3840,
5.0730,0.0286,-0.0315,1.0363,-0.1602,0.2030,-0.0768,-0.0263,0.0329,0.0075,0.3217,-11.9709,-37.3840,
5.0730,0.0195,-0.0177,1.0363,-0.1602,0.2030,-0.0768,-0.0263,0.0329,0.0075,0.3217,-11.9709,-37.3840,
5.0850,0.0195,-0.0177,1.0363,-0.1602,0.2030,-0.0768,-0.0263,0.0329,0.0075,0.3006,-11.9245,-37.4332,
5.1060,0.0194,-0.0206,1.0253,-0.1602,0.2030,-0.0768,-0.0263,0.0329,0.0075,0.3006,-11.9245,-37.4332,
5.1070,0.0194,-0.0206,1.0253,-0.1602,0.2030,-0.0768,0.0137,0.0207,0.0170,0.3006,-11.9245,-37.4332,
5.1500,0.0194,-0.0206,1.0253,0.1163,-0.0395,0.1467,0.0137,0.0207,0.0170,0.3006,-11.9245,-37.4332,
5.1520,0.0194,-0.0206,1.0253,0.1163,-0.0395,0.1467,-0.0196,-0.0153,-0.0151,0.3006,-11.9245,-37.4332,
5.1530,0.0270,-0.0382,1.0236,0.1163,-0.0395,0.1467,-0.0196,-0.0153,-0.0151,0.3006,-11.9245,-37.4332,
5.1540,0.0305,-0.0477,1.0381,0.1163,-0.0395,0.1467,-0.0196,-0.0153,-0.0151,0.3006,-11.9245,-37.4332,
5.1550,0.0305,-0.0477,1.0381,0.1163,-0.0395,0.1467,-0.0196,-0.0153,-0.0151,0.2687,-11.8492,-37.4810,
5.1560,0.0355,-0.0486,1.0192,0.1163,-0.0395,0.1467,-0.0196,-0.0153,-0.0151,0.2687,-11.8492,-37.4810,
5.1720,0.0355,-0.0486,1.0192,0.1163,-0.0395,0.1467,0.0024,0.0219,-0.0288,0.2687,-11.8492,-37.4810,
5.1750,0.0460,-0.0455,1.0191,0.1163,-0.0395,0.1467,0.0024,0.0219,-0.0288,0.2687,-11.8492,-37.4810,
5.2060,0.0489,-0.0458,1.0191,0.1163,-0.0395,0.1467,0.0024,0.0219,-0.0288,0.2687,-11.8492,-37.4810,
5.2070,0.0489,-0.0458,1.0191,0.1163,-0.0395,0.1467,-0.0123,0.0656,-0.0444,0.2687,-11.8492,-37.4810,
5.2090,0.0489,-0.0458,1.0191,0.1169,-0.0805,0.0409,-0.0123,0.0656,-0.0444,0.2687,-11.8492,-37.4810,
5.2100,0.0441,-0.0514,1.0152,0.1169,-0.0805,0.0409,-0.0123,0.0656,-0.0444,0.2687,-11.8492,-37.4810,
5.2170,0.0441,-0.0514,1.0152,0.1169,-0.0805,0.0409,-0.0123,0.0656,-0.0444,0.1852,-11.8133,-37.4689,
5.2410,0.0318,-0.0552,1.0376,0.1169,-0.0805,0.0409,-0.0123,0.0656,-0.0444,0.1852,-11.8133,-37.4689,
5.2850,0.0089,-0.0466,1.0323,0.1169,-0.0805,0.0409,-0.0123,0.0656,-0.0444,0.1852,-11.8133,-37.4689,
5.2870,0.0089,-0.0466,1.0323,0.1169,-0.0805,0.0409,0.0100,0.0919,-0.0435,0.1852,-11.8133,-37.4689,
5.2870,0.0089,-0.0466,1.0323,0.1169,-0.0805,0.0409,0.0256,0.0506,-0.0261,0.1852,-11.8133,-37.4689,
5.2880,-0.0192,-0.0299,1.0343,0.1169,-0.0805,0.0409,0.0256,0.0506,-0.0261,0.1852,-11.8133,-37.4689,
5.2880,-0.0192,-0.0299,1.0343,0.1169,-0.0805,0.0409,0.0256,0.0506,-0.0261,0.3075,-11.8087,-37.4900,
5.2890,-0.0479,-0.0100,1.0264,0.1169,-0.0805,0.0409,0.0256,0.0506,-0.0261,0.3075,-11.8087,-37.4900,
5.2900,-0.0479,-0.0100,1.0264,0.3128,-0.1731,-0.0620,0.0256,0.0506,-0.0261,0.3075,-11.8087,-37.4900,
5.3050,-0.0904,0.0144,1.0258,0.3128,-0.1731,-0.0620,0.0256,0.0506,-0.0261,0.3075,-11.8087,-37.4900,
5.3430,-0.0825,0.0177,1.0374,0.3128,-0.1731,-0.0620,0.0256,0.0506,-0.0261,0.3075,-11.8087,-37.4900,
5.3450,-0.0825,0.0177,1.0374,0.3128,-0.1731,-0.0620,-0.0273,-0.0266,0.0811,0.3075,-11.8087,-37.4900,
5.3460,-0.0825,0.0177,1.0374,-0.1347,-0.0619,0.0974,-0.0273,-0.0266,0.0811,0.3075,-11.8087,-37.4900,
5.3470,-0.0269,-0.0163,1.0321,-0.1347,-0.0619,0.0974,-0.0273,-0.0266,0.0811,0.3075,-11.8087,-37.4900,
5.3510,-0.0269,-0.0163,1.0321,-0.1347,-0.0619,0.0974,-0.0273,-0.0266,0.0811,0.4215,-11.7367,-37.5329,
5.3720,-0.0269,-0.0163,1.0321,-0.1347,-0.0619,0.0974,-0.1024,-0.1348,0.1340,0.4215,-11.7367,-37.5329,
5.3730,0.0431,-0.0748,1.0240,-0.1347,-0.0619,0.0974,-0.1024,-0.1348,0.1340,0.4215,-11.7367,-37.5329,
5.4180,0.0431,-0.0748,1.0240,-0.1347,-0.0619,0.0974,-0.1024,-0.1348,0.1340,0.4496,-11.6783,-37.5797,
5.4200,0.0431,-0.0748,1.0240,-0.1347,-0.0619,0.0974,-0.0752,-0.0890,-0.0249,0.4496,-11.6783,-37.5797,
5.4200,0.0784,-0.1115,0.9992,-0.1347,-0.0619,0.0974,-0.0752,-0.0890,-0.0249,0.4496,-11.6783,-37.5797,
5.4210,0.0664,-0.0976,1.0616,-0.1347,-0.0619,0.0974,-0.0752,-0.0890,-0.0249,0.4496,-11.6783,-37.5797,
5.4220,0.0664,-0.0976,1.0616,-0.7585,0.3706,0.0487,-0.0752,-0.0890,-0.0249,0.4496,-11.6783,-37.5797,
5.4400,0.0537,-0.0659,1.0135,-0.7585,0.3706,0.0487,-0.0752,-0.0890,-0.0249,0.4496,-11.6783,-37.5797,
5.4810,0.0392,-0.0393,1.0030,-0.7585,0.3706,0.0487,-0.0752,-0.0890,-0.0249,0.4496,-11.6783,-37.5797,
5.4830,-0.0022,-0.0072,1.0315,-0.7585,0.3706,0.0487,-0.0752,-0.0890,-0.0249,0.4496,-11.6783,-37.5797,
5.4840,-0.0391,0.0122,1.0239,-0.7585,0.3706,0.0487,-0.0752,-0.0890,-0.0249,0.4496,-11.6783,-37.5797,
5.4840,-0.0391,0.0122,1.0239,-0.7585,0.3706,0.0487,0.0430,-0.0181,-0.0508,0.4496,-11.6783,-37.5797,
5.4850,-0.0391,0.0122,1.0239,-0.7585,0.3706,0.0487,0.0671,0.0369,-0.0246,0.4496,-11.6783,-37.5797,
5.4850,-0.0391,0.0122,1.0239,0.4885,-0.5964,0.0318,0.0671,0.0369,-0.0246,0.4496,-11.6783,-37.5797,
5.4860,-0.0391,0.0122,1.0239,0.4885,-0.5964,0.0318,0.0671,0.0369,-0.0246,0.5626,-11.6149,-37.5846,
5.5060,-0.0412,0.0060,1.0318,0.4885,-0.5964,0.0318,0.0671,0.0369,-0.0246,0.5626,-11.6149,-37.5846,
5.5520,-0.0412,0.0060,1.0318,0.4885,-0.5964,0.0318,-0.0056,-0.0425,0.0533,0.5626,-11.6149,-37.5846,
5.5550,-0.0412,0.0060,1.0318,0.4885,-0.5964,0.0318,-0.0056,-0.0425,0.0533,0.6141,-11.5861,-37.6710,
5.5560,-0.0057,-0.0227,1.0354,0.4885,-0.5964,0.0318,-0.0056,-0.0425,0.0533,0.6141,-11.5861,-37.6710,
5.5570,0.0429,-0.0493,1.0366,0.4885,-0.5964,0.0318,-0.0056,-0.0425,0.0533,0.6141,-11.5861,-37.6710,
5.5570,0.0429,-0.0493,1.0366,-0.0892,0.1420,-0.0839,-0.0056,-0.0425,0.0533,0.6141,-11.5861,-37.6710,
5.5730,0.0674,-0.0591,1.0164,-0.0892,0.1420,-0.0839,-0.0056,-0.0425,0.0533,0.6141,-11.5861,-37.6710,
5.5750,0.0674,-0.0591,1.0164,-0.0892,0.1420,-0.0839,-0.0471,-0.0883,0.0408,0.6141,-11.5861,-37.6710,
5.6150,0.0675,-0.0549,1.0048,-0.0892,0.1420,-0.0839,-0.0471,-0.0883,0.0408,0.6141,-11.5861,-37.6710,
5.6170,0.0675,-0.0549,1.0048,-0.0892,0.1420,-0.0839,-0.0062,0.0005,0.0271,0.6141,-11.5861,-37.6710,
5.6170,0.0517,-0.0492,1.0230,-0.0892,0.1420,-0.0839,-0.0062,0.0005,0.0271,0.6141,-11.5861,-37.6710,
5.6180,0.0204,-0.0424,1.0337,-0.0892,0.1420,-0.0839,-0.0062,0.0005,0.0271,0.6141,-11.5861,-37.6710,
5.6180,0.0204,-0.0424,1.0337,-0.0750,0.0520,0.0779,-0.0062,0.0005,0.0271,0.6141,-11.5861,-37.6710,
5.6190,0.0204,-0.0424,1.0337,-0.0750,0.0520,0.0779,-0.0062,0.0005,0.0271,0.6153,-11.5558,-37.6433,
5.6400,0.0038,-0.0366,1.0299,-0.0750,0.0520,0.0779,-0.0062,0.0005,0.0271,0.6153,-11.5558,-37.6433,
5.6430,0.0038,-0.0366,1.0299,-0.0750,0.0520,0.0779,0.0250,0.0326,0.0494,0.6153,-11.5558,-37.6433,
5.6860,0.0068,-0.0394,1.0245,-0.0750,0.0520,0.0779,0.0250,0.0326,0.0494,0.6153,-11.5558,-37.6433,
5.6870,0.0068,-0.0394,1.0245,-0.0750,0.0520,0.0779,0.0250,0.0326,0.0494,0.6268,-11.5537,-37.5914,
5.6880,0.0068,-0.0394,1.0245,-0.0750,0.0520,0.0779,0.0015,-0.0092,0.0564,0.6268,-11.5537,-37.5914,
5.6890,0.0166,-0.0508,1.0192,-0.0750,0.0520,0.0779,0.0015,-0.0092,0.0564,0.6268,-11.5537,-37.5914,
5.6950,0.0166,-0.0508,1.0192,0.3295,-0.1746,-0.0591,0.0015,-0.0092,0.0564,0.6268,-11.5537,-37.5914,
5.7060,0.0260,-0.0610,1.0348,0.3295,-0.1746,-0.0591,0.0015,-0.0092,0.0564,0.6268,-11.5537,-37.5914,
5.7520,0.0388,-0.0692,1.0069,0.3295,-0.1746,-0.0591,0.0015,-0.0092,0.0564,0.6268,-11.5537,-37.5914,
5.7540,0.0388,-0.0692,1.0069,0.3295,-0.1746,-0.0591,-0.0297,-0.0419,0.0191,0.6268,-11.5537,-37.5914,
5.7550,0.0388,-0.0692,1.0069,0.3295,-0.1746,-0.0591,-0.0297,-0.0419,0.0191,0.6409,-11.5245,-37.6148,
5.7560,0.0418,-0.0614,1.0360,0.3295,-0.1746,-0.0591,-0.0297,-0.0419,0.0191,0.6409,-11.5245,-37.6148,
5.7570,0.0418,-0.0614,1.0360,0.3295,-0.1746,-0.0591,0.0076,-0.0190,-0.0050,0.6409,-11.5245,-37.6148,
5.7570,0.0289,-0.0460,1.0305,0.3295,-0.1746,-0.0591,0.0076,-0.0190,-0.0050,0.6409,-11.5245,-37.6148,
5.7580,0.0289,-0.0460,1.0305,-0.0692,-0.1107,0.0218,0.0076,-0.0190,-0.0050,0.6409,-11.5245,-37.6148,
5.7740,0.0233,-0.0364,1.0177,-0.0692,-0.1107,0.0218,0.0076,-0.0190,-0.0050,0.6409,-11.5245,-37.6148,
5.8190,0.0233,-0.0364,1.0177,-0.0692,-0.1107,0.0218,0.0286,-0.0083,0.0017,0.6409,-11.5245,-37.6148,
5.8210,0.0183,-0.0325,1.0283,-0.0692,-0.1107,0.0218,0.0286,-0.0083,0.0017,0.6409,-11.5245,-37.6148,
5.8220,0.0183,-0.0325,1.0283,-0.0692,-0.1107,0.0218,0.0286,-0.0083,0.0017,0.5452,-11.5002,-37.6423,
5.8230,0.0181,-0.0345,1.0271,-0.0692,-0.1107,0.0218,0.0286,-0.0083,0.0017,0.5452,-11.5002,-37.6423,
5.8310,0.0181,-0.0345,1.0271,0.1572,-0.2687,-0.0021,0.0286,-0.0083,0.0017,0.5452,-11.5002,-37.6423,
5.8400,0.0181,-0.0345,1.0271,0.1572,-0.2687,-0.0021,0.0161,-0.0178,0.0008,0.5452,-11.5002,-37.6423,
5.8410,0.0178,-0.0358,1.0291,0.1572,-0.2687,-0.0021,0.0161,-0.0178,0.0008,0.5452,-11.5002,-37.6423,
5.8860,0.0183,-0.0380,1.0241,0.1572,-0.2687,-0.0021,0.0161,-0.0178,0.0008,0.5452,-11.5002,-37.6423,
5.8870,0.0183,-0.0380,1.0241,0.1572,-0.2687,-0.0021,-0.0010,-0.0331,0.0032,0.5452,-11.5002,-37.6423,
5.8880,0.0212,-0.0381,1.0208,0.1572,-0.2687,-0.0021,-0.0010,-0.0331,0.0032,0.5452,-11.5002,-37.6423,
5.8890,0.0212,-0.0381,1.0208,0.1572,-0.2687,-0.0021,-0.0010,-0.0331,0.0032,0.3986,-11.5173,-37.6742,
5.8890,0.0282,-0.0355,1.0201,0.1572,-0.2687,-0.0021,-0.0010,-0.0331,0.0032,0.3986,-11.5173,-37.6742,
5.8900,0.0282,-0.0355,1.0201,-0.0172,-0.0227,-0.0007,-0.0010,-0.0331,0.0032,0.3986,-11.5173,-37.6742,
5.9530,0.0282,-0.0355,1.0201,-0.0172,-0.0227,-0.0007,-0.0068,-0.0105,0.0090,0.3986,-11.5173,-37.6742,
5.9550,0.0385,-0.0398,1.0147,-0.0172,-0.0227,-0.0007,-0.0068,-0.0105,0.0090,0.3986,-11.5173,-37.6742,
5.9560,0.0385,-0.0398,1.0147,-0.0172,-0.0227,-0.0007,0.0051,0.0057,0.0020,0.3986,-11.5173,-37.6742,
5.9560,0.0391,-0.0472,1.0293,-0.0172,-0.0227,-0.0007,0.0051,0.0057,0.0020,0.3986,-11.5173,-37.6742,
5.9570,0.0391,-0.0472,1.0293,-0.0172,-0.0227,-0.0007,0.0051,0.0057,0.0020,0.3970,-11.5353,-37.6240,
5.9580,0.0266,-0.0520,1.0304,-0.0172,-0.0227,-0.0007,0.0051,0.0057,0.0020,0.3970,-11.5353,-37.6240,
5.9710,0.0266,-0.0520,1.0304,0.0078,-0.0442,-0.0177,0.0051,0.0057,0.0020,0.3970,-11.5353,-37.6240,
5.9720,0.0114,-0.0527,1.0302,0.0078,-0.0442,-0.0177,0.0051,0.0057,0.0020,0.3970,-11.5353,-37.6240,
6.0180,0.0138,-0.0537,1.0359,0.0078,-0.0442,-0.0177,0.0051,0.0057,0.0020,0.3970,-11.5353,-37.6240,
6.0200,0.0138,-0.0537,1.0359,0.0078,-0.0442,-0.0177,0.0051,0.0057,0.0020,0.2495,-11.5501,-37.5787,
6.0210,0.0138,-0.0537,1.0359,0.0078,-0.0442,-0.0177,0.0161,-0.0215,-0.0145,0.2495,-11.5501,-37.5787,
6.0210,0.0282,-0.0500,1.0273,0.0078,-0.0442,-0.0177,0.0161,-0.0215,-0.0145,0.2495,-11.5501,-37.5787,
6.0260,0.0337,-0.0394,1.0162,0.0078,-0.0442,-0.0177,0.0161,-0.0215,-0.0145,0.2495,-11.5501,-37.5787,
6.0280,0.0337,-0.0394,1.0162,0.0078,-0.0442,-0.0177,0.0296,-0.0343,-0.0203,0.2495,-11.5501,-37.5787,
6.0280,0.0337,-0.0394,1.0162,0.0727,-0.1423,0.0061,0.0296,-0.0343,-0.0203,0.2495,-11.5501,-37.5787,
6.0870,0.0263,-0.0345,1.0142,0.0727,-0.1423,0.0061,0.0296,-0.0343,-0.0203,0.2495,-11.5501,-37.5787,
6.0880,0.0263,-0.0345,1.0142,0.0727,-0.1423,0.0061,0.0253,-0.0169,-0.0181,0.2495,-11.5501,-37.5787,
6.0890,0.0155,-0.0445,1.0073,0.0727,-0.1423,0.0061,0.0253,-0.0169,-0.0181,0.2495,-11.5501,-37.5787,
6.0900,0.0155,-0.0445,1.0073,0.0727,-0.1423,0.0061,0.0253,-0.0169,-0.0181,0.1260,-11.5629,-37.5068,
6.1060,0.0159,-0.0530,1.0676,0.0727,-0.1423,0.0061,0.0253,-0.0169,-0.0181,0.1260,-11.5629,-37.5068,
6.1070,0.0159,-0.0530,1.0676,-0.0340,-0.1564,0.0203,0.0253,-0.0169,-0.0181,0.1260,-11.5629,-37.5068,
6.1080,0.0277,-0.0474,1.0247,-0.0340,-0.1564,0.0203,0.0253,-0.0169,-0.0181,0.1260,-11.5629,-37.5068,
6.1090,0.0277,-0.0474,1.0247,-0.0340,-0.1564,0.0203,0.0332,-0.0761,-0.0328,0.1260,-11.5629,-37.5068,
6.1520,0.0337,-0.0315,1.0315,-0.0340,-0.1564,0.0203,0.0332,-0.0761,-0.0328,0.1260,-11.5629,-37.5068,
6.1550,0.0337,-0.0315,1.0315,-0.0340,-0.1564,0.0203,0.0332,-0.0761,-0.0328,0.0002,-11.6363,-37.4900,
6.1560,0.0359,-0.0176,1.0202,-0.0340,-0.1564,0.0203,0.0332,-0.0761,-0.0328,0.0002,-11.6363,-37.4900,
6.1570,0.0359,-0.0176,1.0202,-0.0340,-0.1564,0.0203,0.0399,-0.0810,-0.0291,0.0002,-11.6363,-37.4900,
6.1630,0.0388,-0.0136,1.0043,-0.0340,-0.1564,0.0203,0.0399,-0.0810,-0.0291,0.0002,-11.6363,-37.4900,
6.1650,0.0388,-0.0136,1.0043,-0.1032,-0.1327,0.0511,0.0399,-0.0810,-0.0291,0.0002,-11.6363,-37.4900,
6.2190,0.0388,-0.0136,1.0043,-0.1032,-0.1327,0.0511,0.0265,-0.0404,-0.0136,0.0002,-11.6363,-37.4900,
6.2220,0.0388,-0.0171,1.0188,-0.1032,-0.1327,0.0511,0.0265,-0.0404,-0.0136,0.0002,-11.6363,-37.4900,
6.2220,0.0388,-0.0171,1.0188,-0.1032,-0.1327,0.0511,0.0265,-0.0404,-0.0136,-0.0740,-11.6592,-37.4941,
6.2230,0.0446,-0.0273,1.0311,-0.1032,-0.1327,0.0511,0.0265,-0.0404,-0.0136,-0.0740,-11.6592,-37.4941,
6.2400,0.0496,-0.0358,1.0365,-0.1032,-0.1327,0.0511,0.0265,-0.0404,-0.0136,-0.0740,-11.6592,-37.4941,
6.2420,0.0496,-0.0358,1.0365,-0.1032,-0.1327,0.0511,-0.0047,-0.0376,-0.0029,-0.0740,-11.6592,-37.4941,
6.2430,0.0496,-0.0358,1.0365,0.0207,0.0606,-0.0688,-0.0047,-0.0376,-0.0029,-0.0740,-11.6592,-37.4941,
6.2850,0.0496,-0.0358,1.0365,0.0207,0.0606,-0.0688,0.0131,-0.0169,0.0115,-0.0740,-11.6592,-37.4941,
6.2870,0.0493,-0.0360,1.0137,0.0207,0.0606,-0.0688,0.0131,-0.0169,0.0115,-0.0740,-11.6592,-37.4941,
6.2870,0.0474,-0.0240,1.0090,0.0207,0.0606,-0.0688,0.0131,-0.0169,0.0115,-0.0740,-11.6592,-37.4941,
6.2880,0.0664,-0.0199,1.0201,0.0207,0.0606,-0.0688,0.0131,-0.0169,0.0115,-0.0740,-11.6592,-37.4941,
6.2890,0.0664,-0.0199,1.0201,0.0207,0.0606,-0.0688,0.0131,-0.0169,0.0115,-0.1860,-11.7030,-37.4879,
6.3000,0.0811,-0.0200,1.0196,0.0207,0.0606,-0.0688,0.0131,-0.0169,0.0115,-0.1860,-11.7030,-37.4879,
6.3010,0.0811,-0.0200,1.0196,0.0207,0.0606,-0.0688,-0.0178,0.0332,0.0436,-0.1860,-11.7030,-37.4879,
6.3020,0.0811,-0.0200,1.0196,0.1108,0.0234,0.0238,-0.0178,0.0332,0.0436,-0.1860,-11.7030,-37.4879,
6.3510,0.0548,-0.0184,1.0330,0.1108,0.0234,0.0238,-0.0178,0.0332,0.0436,-0.1860,-11.7030,-37.4879,
6.3530,0.0548,-0.0184,1.0330,0.1108,0.0234,0.0238,-0.0178,0.0332,0.0436,-0.2371,-11.7216,-37.3880,
6.3540,0.0232,-0.0262,1.0288,0.1108,0.0234,0.0238,-0.0178,0.0332,0.0436,-0.2371,-11.7216,-37.3880,
6.3540,0.0232,-0.0262,1.0288,0.1108,0.0234,0.0238,-0.0147,0.0641,0.0552,-0.2371,-11.7216,-37.3880,
6.3740,0.0158,-0.0488,1.0488,0.1108,0.0234,0.0238,-0.0147,0.0641,0.0552,-0.2371,-11.7216,-37.3880,
6.3780,0.0158,-0.0488,1.0488,0.2795,0.0768,-0.0872,-0.0147,0.0641,0.0552,-0.2371,-11.7216,-37.3880,
6.3790,0.0158,-0.0488,1.0488,0.2795,0.0768,-0.0872,-0.0242,0.0024,0.0432,-0.2371,-11.7216,-37.3880,
6.4180,0.0158,-0.0488,1.0488,0.2795,0.0768,-0.0872,0.0164,-0.0370,-0.0075,-0.2371,-11.7216,-37.3880,
6.4200,0.0256,-0.0747,1.0282,0.2795,0.0768,-0.0872,0.0164,-0.0370,-0.0075,-0.2371,-11.7216,-37.3880,
6.4210,0.0263,-0.0676,1.0327,0.2795,0.0768,-0.0872,0.0164,-0.0370,-0.0075,-0.2371,-11.7216,-37.3880,
6.4210,0.0193,-0.0467,1.0362,0.2795,0.0768,-0.0872,0.0164,-0.0370,-0.0075,-0.2371,-11.7216,-37.3880,
6.4220,0.0193,-0.0467,1.0362,0.2795,0.0768,-0.0872,0.0164,-0.0370,-0.0075,-0.2865,-11.7221,-37.3384,
6.4370,0.0227,-0.0322,1.0217,0.2795,0.0768,-0.0872,0.0164,-0.0370,-0.0075,-0.2865,-11.7221,-37.3384,
6.4390,0.0227,-0.0322,1.0217,-0.0608,-0.0628,0.1054,0.0164,-0.0370,-0.0075,-0.2865,-11.7221,-37.3384,
6.4860,0.0307,-0.0227,1.0199,-0.0608,-0.0628,0.1054,0.0164,-0.0370,-0.0075,-0.2865,-11.7221,-37.3384,
6.4880,0.0307,-0.0227,1.0199,-0.0608,-0.0628,0.1054,0.0442,-0.0517,-0.0157,-0.2865,-11.7221,-37.3384,
6.4890,0.0452,-0.0216,1.0175,-0.0608,-0.0628,0.1054,0.0442,-0.0517,-0.0157,-0.2865,-11.7221,-37.3384,
6.4900,0.0452,-0.0216,1.0175,-0.0608,-0.0628,0.1054,0.0442,-0.0517,-0.0157,-0.3858,-11.7666,-37.3703,
6.5070,0.0495,-0.0200,1.0177,-0.0608,-0.0628,0.1054,0.0442,-0.0517,-0.0157,-0.3858,-11.7666,-37.3703,
6.5080,0.0495,-0.0200,1.0177,-0.0608,-0.0628,0.1054,0.0219,-0.0144,-0.0093,-0.3858,-11.7666,-37.3703,
6.5150,0.0495,-0.0200,1.0177,-0.1239,-0.2134,0.0374,0.0219,-0.0144,-0.0093,-0.3858,-11.7666,-37.3703,
6.5500,0.0388,-0.0196,1.0257,-0.1239,-0.2134,0.0374,0.0219,-0.0144,-0.0093,-0.3858,-11.7666,-37.3703,
6.5510,0.0388,-0.0196,1.0257,-0.1239,-0.2134,0.0374,0.0039,0.0216,0.0011,-0.3858,-11.7666,-37.3703,
6.5520,0.0322,-0.0289,1.0140,-0.1239,-0.2134,0.0374,0.0039,0.0216,0.0011,-0.3858,-11.7666,-37.3703,
6.5520,0.0322,-0.0289,1.0140,-0.1239,-0.2134,0.0374,0.0039,0.0216,0.0011,-0.3992,-11.7863,-37.3592,
6.5730,0.0291,-0.0445,1.0398,-0.1239,-0.2134,0.0374,0.0039,0.0216,0.0011,-0.3992,-11.7863,-37.3592,
6.5750,0.0291,-0.0445,1.0398,-0.1239,-0.2134,0.0374,-0.0077,0.0042,-0.0016,-0.3992,-11.7863,-37.3592,
6.5750,0.0326,-0.0507,1.0398,-0.1239,-0.2134,0.0374,-0.0077,0.0042,-0.0016,-0.3992,-11.7863,-37.3592,
6.5760,0.0326,-0.0507,1.0398,0.0566,0.0924,-0.0487,-0.0077,0.0042,-0.0016,-0.3992,-11.7863,-37.3592,
6.6180,0.0326,-0.0507,1.0398,0.0566,0.0924,-0.0487,0.0204,-0.0080,-0.0026,-0.3992,-11.7863,-37.3592,
6.6200,0.0326,-0.0507,1.0398,0.0566,0.0924,-0.0487,0.0204,-0.0080,-0.0026,-0.4861,-11.8306,-37.4035,
6.6210,0.0277,-0.0329,1.0170,0.0566,0.0924,-0.0487,0.0204,-0.0080,-0.0026,-0.4861,-11.8306,-37.4035,
6.6220,0.0368,-0.0212,1.0224,0.0566,0.0924,-0.0487,0.0204,-0.0080,-0.0026,-0.4861,-11.8306,-37.4035,
6.6420,0.0468,-0.0255,1.0217,0.0566,0.0924,-0.0487,0.0204,-0.0080,-0.0026,-0.4861,-11.8306,-37.4035,
6.6510,0.0468,-0.0255,1.0217,-0.0409,-0.0779,0.0393,0.0204,-0.0080,-0.0026,-0.4861,-11.8306,-37.4035,
6.6840,0.0468,-0.0255,1.0217,-0.0409,-0.0779,0.0393,0.0042,-0.0102,-0.0047,-0.4861,-11.8306,-37.4035,
6.6860,0.0517,-0.0333,1.0273,-0.0409,-0.0779,0.0393,0.0042,-0.0102,-0.0047,-0.4861,-11.8306,-37.4035,
6.6860,0.0493,-0.0334,1.0242,-0.0409,-0.0779,0.0393,0.0042,-0.0102,-0.0047,-0.4861,-11.8306,-37.4035,
6.6860,0.0493,-0.0334,1.0242,-0.0409,-0.0779,0.0393,0.0042,-0.0102,-0.0047,-0.4851,-11.8220,-37.4415,
6.7060,0.0420,-0.0273,1.0163,-0.0409,-0.0779,0.0393,0.0042,-0.0102,-0.0047,-0.4851,-11.8220,-37.4415,
6.7080,0.0420,-0.0273,1.0163,-0.0409,-0.0779,0.0393,-0.0117,0.0021,-0.0056,-0.4851,-11.8220,-37.4415,
6.7090,0.0407,-0.0354,1.0041,-0.0409,-0.0779,0.0393,-0.0117,0.0021,-0.0056,-0.4851,-11.8220,-37.4415,
6.7090,0.0407,-0.0354,1.0041,0.0305,0.0359,-0.0372,-0.0117,0.0021,-0.0056,-0.4851,-11.8220,-37.4415,
6.7510,0.0407,-0.0354,1.0041,0.0305,0.0359,-0.0372,-0.0218,0.0341,0.0063,-0.4851,-11.8220,-37.4415,
6.7530,0.0407,-0.0354,1.0041,0.0305,0.0359,-0.0372,-0.0218,0.0341,0.0063,-0.4978,-11.8213,-37.4034,
6.7540,0.0373,-0.0447,1.0489,0.0305,0.0359,-0.0372,-0.0218,0.0341,0.0063,-0.4978,-11.8213,-37.4034,
6.7550,0.0336,-0.0463,1.0345,0.0305,0.0359,-0.0372,-0.0218,0.0341,0.0063,-0.4978,-11.8213,-37.4034,
6.7730,0.0366,-0.0417,1.0232,0.0305,0.0359,-0.0372,-0.0218,0.0341,0.0063,-0.4978,-11.8213,-37.4034,
6.7740,0.0366,-0.0417,1.0232,0.0305,0.0359,-0.0372,-0.0129,-0.0266,0.0072,-0.4978,-11.8213,-37.4034,
6.7880,0.0366,-0.0417,1.0232,0.0761,-0.0044,-0.0732,-0.0129,-0.0266,0.0072,-0.4978,-11.8213,-37.4034,
6.8180,0.0366,-0.0417,1.0232,0.0761,-0.0044,-0.0732,0.0225,-0.0068,0.0038,-0.4978,-11.8213,-37.4034,
6.8190,0.0366,-0.0417,1.0232,0.0761,-0.0044,-0.0732,0.0225,-0.0068,0.0038,-0.5100,-11.8219,-37.4038,
6.8200,0.0353,-0.0339,1.0326,0.0761,-0.0044,-0.0732,0.0225,-0.0068,0.0038,-0.5100,-11.8219,-37.4038,
6.8200,0.0426,-0.0279,1.0006,0.0761,-0.0044,-0.0732,0.0225,-0.0068,0.0038,-0.5100,-11.8219,-37.4038,
6.8390,0.0386,-0.0249,1.0290,0.0761,-0.0044,-0.0732,0.0225,-0.0068,0.0038,-0.5100,-11.8219,-37.4038,
6.8520,0.0386,-0.0249,1.0290,0.0761,-0.0044,-0.0732,-0.0160,0.0033,0.0042,-0.5100,-11.8219,-37.4038,
6.8530,0.0413,-0.0284,1.0359,0.0761,-0.0044,-0.0732,-0.0160,0.0033,0.0042,-0.5100,-11.8219,-37.4038,
6.8540,0.0413,-0.0284,1.0359,-0.0158,-0.0977,0.1051,-0.0160,0.0033,0.0042,-0.5100,-11.8219,-37.4038,
6.8840,0.0413,-0.0284,1.0359,-0.0158,-0.0977,0.1051,-0.0160,0.0033,0.0042,-0.5359,-11.8634,-37.4459,
6.8860,0.0438,-0.0339,1.0247,-0.0158,-0.0977,0.1051,-0.0160,0.0033,0.0042,-0.5359,-11.8634,-37.4459,
6.9060,0.0376,-0.0387,1.0255,-0.0158,-0.0977,0.1051,-0.0160,0.0033,0.0042,-0.5359,-11.8634,-37.4459,
6.9080,0.0376,-0.0387,1.0255,-0.0158,-0.0977,0.1051,-0.0138,0.0033,0.0032,-0.5359,-11.8634,-37.4459,
6.9080,0.0321,-0.0400,1.0221,-0.0158,-0.0977,0.1051,-0.0138,0.0033,0.0032,-0.5359,-11.8634,-37.4459,
6.9240,0.0321,-0.0400,1.0221,0.0313,0.0505,-0.0287,-0.0138,0.0033,0.0032,-0.5359,-11.8634,-37.4459,
6.9510,0.0298,-0.0376,1.0306,0.0313,0.0505,-0.0287,-0.0138,0.0033,0.0032,-0.5359,-11.8634,-37.4459,
6.9520,0.0298,-0.0376,1.0306,0.0313,0.0505,-0.0287,-0.0138,0.0033,0.0032,-0.5954,-11.8477,-37.4855,
6.9530,0.0298,-0.0376,1.0306,0.0313,0.0505,-0.0287,-0.0071,0.0057,0.0011,-0.5954,-11.8477,-37.4855,
6.9530,0.0347,-0.0344,1.0268,0.0313,0.0505,-0.0287,-0.0071,0.0057,0.0011,-0.5954,-11.8477,-37.4855,
6.9720,0.0383,-0.0342,1.0242,0.0313,0.0505,-0.0287,-0.0071,0.0057,0.0011,-0.5954,-11.8477,-37.4855,
6.9730,0.0383,-0.0342,1.0242,0.0313,0.0505,-0.0287,0.0036,-0.0047,0.0032,-0.5954,-11.8477,-37.4855,
6.9830,0.0383,-0.0342,1.0242,-0.0062,-0.0419,-0.0027,0.0036,-0.0047,0.0032,-0.5954,-11.8477,-37.4855,
6.9850,0.0407,-0.0350,1.0294,-0.0062,-0.0419,-0.0027,0.0036,-0.0047,0.0032,-0.5954,-11.8477,-37.4855,
7.0170,0.0407,-0.0350,1.0294,-0.0062,-0.0419,-0.0027,0.0091,-0.0031,0.0002,-0.5954,-11.8477,-37.4855,
7.0180,0.0407,-0.0350,1.0294,-0.0062,-0.0419,-0.0027,0.0091,-0.0031,0.0002,-0.5487,-11.8738,-37.4470,
7.0190,0.0388,-0.0323,1.0172,-0.0062,-0.0419,-0.0027,0.0091,-0.0031,0.0002,-0.5487,-11.8738,-37.4470,
7.0390,0.0386,-0.0309,1.0252,-0.0062,-0.0419,-0.0027,0.0091,-0.0031,0.0002,-0.5487,-11.8738,-37.4470,
7.0610,0.0399,-0.0403,1.0130,-0.0062,-0.0419,-0.0027,0.0091,-0.0031,0.0002,-0.5487,-11.8738,-37.4470,
7.0620,0.0399,-0.0403,1.0130,-0.0062,-0.0419,-0.0027,-0.0172,-0.0037,0.0054,-0.5487,-11.8738,-37.4470,
7.0620,0.0399,-0.0403,1.0130,-0.0058,-0.0070,0.0216,-0.0172,-0.0037,0.0054,-0.5487,-11.8738,-37.4470,
7.0840,0.0399,-0.0403,1.0130,-0.0058,-0.0070,0.0216,-0.0098,-0.0025,0.0002,-0.5487,-11.8738,-37.4470,
7.0860,0.0380,-0.0410,1.0285,-0.0058,-0.0070,0.0216,-0.0098,-0.0025,0.0002,-0.5487,-11.8738,-37.4470,
7.0870,0.0369,-0.0361,1.0382,-0.0058,-0.0070,0.0216,-0.0098,-0.0025,0.0002,-0.5487,-11.8738,-37.4470,
7.0880,0.0369,-0.0361,1.0382,-0.0058,-0.0070,0.0216,-0.0098,-0.0025,0.0002,-0.5719,-11.8667,-37.4987,
7.1060,0.0371,-0.0307,1.0172,-0.0058,-0.0070,0.0216,-0.0098,-0.0025,0.0002,-0.5719,-11.8667,-37.4987,
7.1200,0.0371,-0.0307,1.0172,0.0108,-0.0068,-0.0535,-0.0098,-0.0025,0.0002,-0.5719,-11.8667,-37.4987,
7.1210,0.0421,-0.0284,1.0312,0.0108,-0.0068,-0.0535,-0.0098,-0.0025,0.0002,-0.5719,-11.8667,-37.4987,
7.1220,0.0421,-0.0284,1.0312,0.0108,-0.0068,-0.0535,-0.0074,-0.0080,0.0038,-0.5719,-11.8667,-37.4987,
7.1500,0.0432,-0.0310,1.0227,0.0108,-0.0068,-0.0535,-0.0074,-0.0080,0.0038,-0.5719,-11.8667,-37.4987,
7.1510,0.0432,-0.0310,1.0227,0.0108,-0.0068,-0.0535,-0.0074,-0.0080,0.0038,-0.5460,-11.8361,-37.4959,
7.1720,0.0415,-0.0351,1.0257,0.0108,-0.0068,-0.0535,-0.0074,-0.0080,0.0038,-0.5460,-11.8361,-37.4959,
7.1740,0.0415,-0.0351,1.0257,0.0108,-0.0068,-0.0535,-0.0050,0.0018,0.0048,-0.5460,-11.8361,-37.4959,
7.1980,0.0386,-0.0397,1.0218,0.0108,-0.0068,-0.0535,-0.0050,0.0018,0.0048,-0.5460,-11.8361,-37.4959,
7.1990,0.0386,-0.0397,1.0218,0.0074,0.0196,0.0428,-0.0050,0.0018,0.0048,-0.5460,-11.8361,-37.4959,
7.2180,0.0386,-0.0397,1.0218,0.0074,0.0196,0.0428,-0.0153,0.0082,0.0066,-0.5460,-11.8361,-37.4959,
7.2190,0.0386,-0.0397,1.0218,0.0074,0.0196,0.0428,-0.0153,0.0082,0.0066,-0.5095,-11.8231,-37.4424,
7.2200,0.0375,-0.0417,1.0222,0.0074,0.0196,0.0428,-0.0153,0.0082,0.0066,-0.5095,-11.8231,-37.4424,
7.2200,0.0370,-0.0422,1.0318,0.0074,0.0196,0.0428,-0.0153,0.0082,0.0066,-0.5095,-11.8231,-37.4424,
7.2390,0.0375,-0.0384,1.0330,0.0074,0.0196,0.0428,-0.0153,0.0082,0.0066,-0.5095,-11.8231,-37.4424,
7.2400,0.0375,-0.0384,1.0330,0.0074,0.0196,0.0428,-0.0059,0.0048,0.0017,-0.5095,-11.8231,-37.4424,
7.2560,0.0375,-0.0384,1.0330,0.0288,-0.0066,-0.0200,-0.0059,0.0048,0.0017,-0.5095,-11.8231,-37.4424,
7.2580,0.0374,-0.0370,1.0192,0.0288,-0.0066,-0.0200,-0.0059,0.0048,0.0017,-0.5095,-11.8231,-37.4424,
7.2840,0.0374,-0.0370,1.0192,0.0288,-0.0066,-0.0200,0.0021,0.0045,0.0038,-0.5095,-11.8231,-37.4424,
7.2860,0.0371,-0.0372,1.0252,0.0288,-0.0066,-0.0200,0.0021,0.0045,0.0038,-0.5095,-11.8231,-37.4424,
7.2860,0.0371,-0.0372,1.0252,0.0288,-0.0066,-0.0200,0.0021,0.0045,0.0038,-0.5327,-11.8160,-37.4942,
7.3050,0.0355,-0.0345,1.0308,0.0288,-0.0066,-0.0200,0.0021,0.0045,0.0038,-0.5327,-11.8160,-37.4942,
7.3340,0.0383,-0.0328,1.0246,0.0288,-0.0066,-0.0200,0.0021,0.0045,0.0038,-0.5327,-11.8160,-37.4942,
7.3360,0.0383,-0.0328,1.0246,0.0288,-0.0066,-0.0200,-0.0068,0.0036,0.0032,-0.5327,-11.8160,-37.4942,
7.3370,0.0368,-0.0340,1.0145,0.0288,-0.0066,-0.0200,-0.0068,0.0036,0.0032,-0.5327,-11.8160,-37.4942,
7.3370,0.0368,-0.0340,1.0145,-0.0013,-0.0313,0.0230,-0.0068,0.0036,0.0032,-0.5327,-11.8160,-37.4942,
7.3510,0.0368,-0.0340,1.0145,-0.0013,-0.0313,0.0230,-0.0068,0.0036,0.0032,-0.5195,-11.7958,-37.4925,
7.3720,0.0363,-0.0406,0.9973,-0.0013,-0.0313,0.0230,-0.0068,0.0036,0.0032,-0.5195,-11.7958,-37.4925,
7.3740,0.0363,-0.0406,0.9973,-0.0013,-0.0313,0.0230,-0.0312,0.0207,0.0054,-0.5195,-11.7958,-37.4925,
7.3750,0.0394,-0.0438,1.0745,-0.0013,-0.0313,0.0230,-0.0312,0.0207,0.0054,-0.5195,-11.7958,-37.4925,
7.3920,0.0394,-0.0438,1.0745,0.0023,0.0246,-0.0028,-0.0312,0.0207,0.0054,-0.5195,-11.7958,-37.4925,
7.3940,0.0394,-0.0438,1.0745,0.0023,0.0246,-0.0028,-0.0001,-0.0080,0.0005,-0.5195,-11.7958,-37.4925,
7.3950,0.0394,-0.0417,1.0271,0.0023,0.0246,-0.0028,-0.0001,-0.0080,0.0005,-0.5195,-11.7958,-37.4925,
7.4180,0.0344,-0.0361,1.0091,0.0023,0.0246,-0.0028,-0.0001,-0.0080,0.0005,-0.5195,-11.7958,-37.4925,
7.4190,0.0344,-0.0361,1.0091,0.0023,0.0246,-0.0028,-0.0001,-0.0080,0.0005,-0.5031,-11.7171,-37.4999,
7.4390,0.0344,-0.0361,1.0091,0.0023,0.0246,-0.0028,-0.0050,-0.0288,0.0042,-0.5031,-11.7171,-37.4999,
7.4400,0.0387,-0.0399,1.0346,0.0023,0.0246,-0.0028,-0.0050,-0.0288,0.0042,-0.5031,-11.7171,-37.4999,
7.4710,0.0387,-0.0399,1.0346,-0.0022,-0.0376,0.0473,-0.0050,-0.0288,0.0042,-0.5031,-11.7171,-37.4999,
7.4730,0.0404,-0.0349,1.0201,-0.0022,-0.0376,0.0473,-0.0050,-0.0288,0.0042,-0.5031,-11.7171,-37.4999,
7.4840,0.0401,-0.0246,1.0208,-0.0022,-0.0376,0.0473,-0.0050,-0.0288,0.0042,-0.5031,-11.7171,-37.4999,
7.4850,0.0401,-0.0246,1.0208,-0.0022,-0.0376,0.0473,0.0152,0.0002,0.0048,-0.5031,-11.7171,-37.4999,
7.4850,0.0401,-0.0246,1.0208,-0.0022,-0.0376,0.0473,0.0152,0.0002,0.0048,-0.3815,-11.7219,-37.5087,
7.5060,0.0473,-0.0278,1.0335,-0.0022,-0.0376,0.0473,0.0152,0.0002,0.0048,-0.3815,-11.7219,-37.5087,
7.5290,0.0473,-0.0278,1.0335,-0.0022,-0.0376,0.0473,-0.0208,-0.0053,0.0045,-0.3815,-11.7219,-37.5087,
7.5300,0.0446,-0.0364,1.0321,-0.0022,-0.0376,0.0473,-0.0208,-0.0053,0.0045,-0.3815,-11.7219,-37.5087,
7.5310,0.0387,-0.0436,1.0221,-0.0022,-0.0376,0.0473,-0.0208,-0.0053,0.0045,-0.3815,-11.7219,-37.5087,
7.5310,0.0387,-0.0436,1.0221,-0.0014,0.0264,-0.0424,-0.0208,-0.0053,0.0045,-0.3815,-11.7219,-37.5087,
7.5510,0.0357,-0.0475,1.0241,-0.0014,0.0264,-0.0424,-0.0208,-0.0053,0.0045,-0.3815,-11.7219,-37.5087,
7.5520,0.0357,-0.0475,1.0241,-0.0014,0.0264,-0.0424,-0.0208,-0.0053,0.0045,-0.3670,-11.6714,-37.4794,
7.5530,0.0357,-0.0475,1.0241,-0.0014,0.0264,-0.0424,-0.0144,0.0054,0.0054,-0.3670,-11.6714,-37.4794,
7.5730,0.0349,-0.0464,1.0267,-0.0014,0.0264,-0.0424,-0.0144,0.0054,0.0054,-0.3670,-11.6714,-37.4794,
7.6100,0.0360,-0.0430,1.0195,-0.0014,0.0264,-0.0424,-0.0144,0.0054,0.0054,-0.3670,-11.6714,-37.4794,
7.6110,0.0391,-0.0395,1.0266,-0.0014,0.0264,-0.0424,-0.0144,0.0054,0.0054,-0.3670,-11.6714,-37.4794,
7.6120,0.0391,-0.0395,1.0266,-0.0014,0.0264,-0.0424,-0.0056,-0.0010,0.0054,-0.3670,-11.6714,-37.4794,
7.6120,0.0391,-0.0395,1.0266,0.0440,0.0391,0.0288,-0.0056,-0.0010,0.0054,-0.3670,-11.6714,-37.4794,
7.6160,0.0391,-0.0395,1.0266,0.0440,0.0391,0.0288,-0.0056,-0.0010,0.0054,-0.3408,-11.6527,-37.5415,
7.6390,0.0404,-0.0372,1.0245,0.0440,0.0391,0.0288,-0.0056,-0.0010,0.0054,-0.3408,-11.6527,-37.5415,
7.6400,0.0404,-0.0372,1.0245,0.0440,0.0391,0.0288,-0.0089,-0.0040,0.0035,-0.3408,-11.6527,-37.5415,
7.6650,0.0404,-0.0372,1.0245,-0.0249,-0.0510,-0.0170,-0.0089,-0.0040,0.0035,-0.3408,-11.6527,-37.5415,
7.6670,0.0404,-0.0372,1.0245,-0.0249,-0.0510,-0.0170,-0.0111,0.0002,0.0051,-0.3408,-11.6527,-37.5415,
7.6670,0.0394,-0.0389,1.0172,-0.0249,-0.0510,-0.0170,-0.0111,0.0002,0.0051,-0.3408,-11.6527,-37.5415,
7.6680,0.0362,-0.0372,1.0384,-0.0249,-0.0510,-0.0170,-0.0111,0.0002,0.0051,-0.3408,-11.6527,-37.5415,
7.6840,0.0362,-0.0372,1.0384,-0.0249,-0.0510,-0.0170,-0.0111,0.0002,0.0051,-0.3260,-11.5921,-37.4987,
7.7060,0.0362,-0.0372,1.0384,-0.0249,-0.0510,-0.0170,-0.0324,0.0024,0.0060,-0.3260,-11.5921,-37.4987,
7.7070,0.0377,-0.0413,0.9938,-0.0249,-0.0510,-0.0170,-0.0324,0.0024,0.0060,-0.3260,-11.5921,-37.4987,
7.7080,0.0412,-0.0431,1.0499,-0.0249,-0.0510,-0.0170,-0.0324,0.0024,0.0060,-0.3260,-11.5921,-37.4987,
7.7450,0.0412,-0.0431,1.0499,0.0024,0.0204,0.0162,-0.0324,0.0024,0.0060,-0.3260,-11.5921,-37.4987,
7.7460,0.0390,-0.0438,1.0327,0.0024,0.0204,0.0162,-0.0324,0.0024,0.0060,-0.3260,-11.5921,-37.4987,
7.7510,0.0390,-0.0438,1.0327,0.0024,0.0204,0.0162,0.0134,-0.0059,0.0002,-0.3260,-11.5921,-37.4987,
7.7520,0.0354,-0.0376,1.0115,0.0024,0.0204,0.0162,0.0134,-0.0059,0.0002,-0.3260,-11.5921,-37.4987,
7.7530,0.0354,-0.0376,1.0115,0.0024,0.0204,0.0162,0.0134,-0.0059,0.0002,-0.3706,-11.5271,-37.5476,
7.7720,0.0397,-0.0322,1.0272,0.0024,0.0204,0.0162,0.0134,-0.0059,0.0002,-0.3706,-11.5271,-37.5476,
7.8040,0.0427,-0.0334,1.0290,0.0024,0.0204,0.0162,0.0134,-0.0059,0.0002,-0.3706,-11.5271,-37.5476,
7.8060,0.0427,-0.0334,1.0290,0.0024,0.0204,0.0162,-0.0111,-0.0040,0.0060,-0.3706,-11.5271,-37.5476,
7.8060,0.0427,-0.0334,1.0290,-0.0018,-0.0144,-0.0172,-0.0111,-0.0040,0.0060,-0.3706,-11.5271,-37.5476,
7.8070,0.0423,-0.0404,1.0324,-0.0018,-0.0144,-0.0172,-0.0111,-0.0040,0.0060,-0.3706,-11.5271,-37.5476,
7.8170,0.0423,-0.0404,1.0324,-0.0018,-0.0144,-0.0172,-0.0111,-0.0040,0.0060,-0.4161,-11.4708,-37.5586,
7.8390,0.0423,-0.0404,1.0324,-0.0018,-0.0144,-0.0172,0.0036,-0.0114,0.0011,-0.4161,-11.4708,-37.5586,
7.8410,0.0385,-0.0424,1.0279,-0.0018,-0.0144,-0.0172,0.0036,-0.0114,0.0011,-0.4161,-11.4708,-37.5586,
7.8810,0.0385,-0.0424,1.0279,0.0132,0.0478,0.0168,0.0036,-0.0114,0.0011,-0.4161,-11.4708,-37.5586,
7.8830,0.0363,-0.0432,1.0082,0.0132,0.0478,0.0168,0.0036,-0.0114,0.0011,-0.4161,-11.4708,-37.5586,
7.8830,0.0363,-0.0432,1.0082,0.0132,0.0478,0.0168,-0.0062,-0.0022,0.0042,-0.4161,-11.4708,-37.5586,
7.8840,0.0412,-0.0474,1.0177,0.0132,0.0478,0.0168,-0.0062,-0.0022,0.0042,-0.4161,-11.4708,-37.5586,
7.8850,0.0375,-0.0431,1.0328,0.0132,0.0478,0.0168,-0.0062,-0.0022,0.0042,-0.4161,-11.4708,-37.5586,
7.8850,0.0375,-0.0431,1.0328,0.0132,0.0478,0.0168,-0.0062,-0.0022,0.0042,-0.4141,-11.4425,-37.5953,
7.9070,0.0386,-0.0410,1.0267,0.0132,0.0478,0.0168,-0.0062,-0.0022,0.0042,-0.4141,-11.4425,-37.5953,
7.9080,0.0386,-0.0410,1.0267,0.0132,0.0478,0.0168,-0.0010,0.0076,0.0017,-0.4141,-11.4425,-37.5953,
7.9380,0.0386,-0.0410,1.0267,-0.0050,-0.0335,-0.0472,-0.0010,0.0076,0.0017,-0.4141,-11.4425,-37.5953,
7.9400,0.0390,-0.0405,1.0211,-0.0050,-0.0335,-0.0472,-0.0010,0.0076,0.0017,-0.4141,-11.4425,-37.5953,
7.9400,0.0359,-0.0415,1.0169,-0.0050,-0.0335,-0.0472,-0.0010,0.0076,0.0017,-0.4141,-11.4425,-37.5953,
7.9400,0.0359,-0.0415,1.0169,-0.0050,-0.0335,-0.0472,-0.0034,0.0018,0.0008,-0.4141,-11.4425,-37.5953,
7.9500,0.0359,-0.0415,1.0169,-0.0050,-0.0335,-0.0472,-0.0034,0.0018,0.0008,-0.4139,-11.4429,-37.6081,
7.9730,0.0365,-0.0448,1.0340,-0.0050,-0.0335,-0.0472,-0.0034,0.0018,0.0008,-0.4139,-11.4429,-37.6081,
8.0170,0.0365,-0.0448,1.0340,-0.0050,-0.0335,-0.0472,-0.0056,-0.0025,0.0042,-0.4139,-11.4429,-37.6081,
8.0180,0.0365,-0.0448,1.0340,-0.0120,0.0040,-0.0124,-0.0056,-0.0025,0.0042,-0.4139,-11.4429,-37.6081,
8.0190,0.0413,-0.0421,1.0291,-0.0120,0.0040,-0.0124,-0.0056,-0.0025,0.0042,-0.4139,-11.4429,-37.6081,
8.0190,0.0383,-0.0366,1.0078,-0.0120,0.0040,-0.0124,-0.0056,-0.0025,0.0042,-0.4139,-11.4429,-37.6081,
8.0200,0.0401,-0.0433,1.0017,-0.0120,0.0040,-0.0124,-0.0056,-0.0025,0.0042,-0.4139,-11.4429,-37.6081,
8.0200,0.0401,-0.0433,1.0017,-0.0120,0.0040,-0.0124,-0.0236,0.0106,0.0051,-0.4139,-11.4429,-37.6081,
8.0220,0.0401,-0.0433,1.0017,-0.0120,0.0040,-0.0124,-0.0236,0.0106,0.0051,-0.4893,-11.4630,-37.5221,
8.0390,0.0404,-0.0466,1.0740,-0.0120,0.0040,-0.0124,-0.0236,0.0106,0.0051,-0.4893,-11.4630,-37.5221,
8.0760,0.0402,-0.0435,1.0180,-0.0120,0.0040,-0.0124,-0.0236,0.0106,0.0051,-0.4893,-11.4630,-37.5221,
8.0780,0.0388,-0.0402,1.0097,-0.0120,0.0040,-0.0124,-0.0236,0.0106,0.0051,-0.4893,-11.4630,-37.5221,
8.0780,0.0388,-0.0402,1.0097,-0.0120,0.0040,-0.0124,0.0161,-0.0031,-0.0020,-0.4893,-11.4630,-37.5221,
8.0790,0.0388,-0.0402,1.0097,-0.0071,0.0044,-0.0361,0.0161,-0.0031,-0.0020,-0.4893,-11.4630,-37.5221,
8.0830,0.0388,-0.0402,1.0097,-0.0071,0.0044,-0.0361,0.0161,-0.0031,-0.0020,-0.5118,-11.4465,-37.5861,
8.1060,0.0407,-0.0424,1.0401,-0.0071,0.0044,-0.0361,0.0161,-0.0031,-0.0020,-0.5118,-11.4465,-37.5861,
8.1080,0.0407,-0.0424,1.0401,-0.0071,0.0044,-0.0361,-0.0095,-0.0379,0.0035,-0.5118,-11.4465,-37.5861,
8.1520,0.0407,-0.0424,1.0401,-0.0071,0.0044,-0.0361,0.0323,-0.0050,0.0045,-0.5118,-11.4465,-37.5861,
8.1530,0.0432,-0.0416,1.0242,-0.0071,0.0044,-0.0361,0.0323,-0.0050,0.0045,-0.5118,-11.4465,-37.5861,
8.1540,0.0403,-0.0348,1.0162,-0.0071,0.0044,-0.0361,0.0323,-0.0050,0.0045,-0.5118,-11.4465,-37.5861,
8.1540,0.0403,-0.0348,1.0162,-0.0071,0.0044,-0.0361,0.0323,-0.0050,0.0045,-0.5230,-11.4164,-37.5461,
8.1550,0.0403,-0.0348,1.0162,-0.0032,-0.0304,0.0462,0.0323,-0.0050,0.0045,-0.5230,-11.4164,-37.5461,
8.1740,0.0426,-0.0292,1.0255,-0.0032,-0.0304,0.0462,0.0323,-0.0050,0.0045,-0.5230,-11.4164,-37.5461,
8.1750,0.0476,-0.0354,1.0286,-0.0032,-0.0304,0.0462,0.0323,-0.0050,0.0045,-0.5230,-11.4164,-37.5461,
8.1760,0.0476,-0.0354,1.0286,-0.0032,-0.0304,0.0462,-0.0071,-0.0062,0.0066,-0.5230,-11.4164,-37.5461,
8.2130,0.0476,-0.0354,1.0286,0.0073,0.0225,0.0162,-0.0071,-0.0062,0.0066,-0.5230,-11.4164,-37.5461,
8.2150,0.0476,-0.0354,1.0286,0.0073,0.0225,0.0162,0.0106,-0.0001,0.0023,-0.5230,-11.4164,-37.5461,
8.2150,0.0419,-0.0441,1.0297,0.0073,0.0225,0.0162,0.0106,-0.0001,0.0023,-0.5230,-11.4164,-37.5461,
8.2160,0.0366,-0.0469,1.0263,0.0073,0.0225,0.0162,0.0106,-0.0001,0.0023,-0.5230,-11.4164,-37.5461,
8.2160,0.0366,-0.0469,1.0263,0.0073,0.0225,0.0162,0.0106,-0.0001,0.0023,-0.5245,-11.4458,-37.5480,
8.2400,0.0388,-0.0453,1.0232,0.0073,0.0225,0.0162,0.0106,-0.0001,0.0023,-0.5245,-11.4458,-37.5480,
8.2840,0.0421,-0.0464,1.0214,0.0073,0.0225,0.0162,0.0106,-0.0001,0.0023,-0.5245,-11.4458,-37.5480,
8.2860,0.0421,-0.0464,1.0214,0.0073,0.0225,0.0162,0.0070,-0.0074,0.0026,-0.5245,-11.4458,-37.5480,
8.2870,0.0416,-0.0425,1.0232,0.0073,0.0225,0.0162,0.0070,-0.0074,0.0026,-0.5245,-11.4458,-37.5480,
8.2870,0.0416,-0.0425,1.0232,0.0073,0.0225,0.0162,0.0070,-0.0074,0.0026,-0.4640,-11.4529,-37.5463,
8.2900,0.0416,-0.0425,1.0232,0.0119,-0.0029,0.0269,0.0070,-0.0074,0.0026,-0.4640,-11.4529,-37.5463,
8.3060,0.0403,-0.0409,1.0264,0.0119,-0.0029,0.0269,0.0070,-0.0074,0.0026,-0.4640,-11.4529,-37.5463,
8.3080,0.0403,-0.0409,1.0264,0.0119,-0.0029,0.0269,0.0005,-0.0056,-0.0004,-0.4640,-11.4529,-37.5463,
8.3490,0.0396,-0.0404,1.0227,0.0119,-0.0029,0.0269,0.0005,-0.0056,-0.0004,-0.4640,-11.4529,-37.5463,
8.3510,0.0396,-0.0404,1.0227,-0.0054,-0.0331,-0.0178,0.0005,-0.0056,-0.0004,-0.4640,-11.4529,-37.5463,
8.3510,0.0405,-0.0372,1.0263,-0.0054,-0.0331,-0.0178,0.0005,-0.0056,-0.0004,-0.4640,-11.4529,-37.5463,
8.3520,0.0409,-0.0380,1.0031,-0.0054,-0.0331,-0.0178,0.0005,-0.0056,-0.0004,-0.4640,-11.4529,-37.5463,
8.3520,0.0409,-0.0380,1.0031,-0.0054,-0.0331,-0.0178,-0.0031,-0.0065,0.0008,-0.4640,-11.4529,-37.5463,
8.3530,0.0409,-0.0380,1.0031,-0.0054,-0.0331,-0.0178,-0.0031,-0.0065,0.0008,-0.4159,-11.4602,-37.5322,
8.3720,0.0459,-0.0435,1.0424,-0.0054,-0.0331,-0.0178,-0.0031,-0.0065,0.0008,-0.4159,-11.4602,-37.5322,
8.3740,0.0459,-0.0435,1.0424,-0.0054,-0.0331,-0.0178,-0.0218,-0.0031,0.0023,-0.4159,-11.4602,-37.5322,
8.4170,0.0421,-0.0435,1.0359,-0.0054,-0.0331,-0.0178,-0.0218,-0.0031,0.0023,-0.4159,-11.4602,-37.5322,
8.4180,0.0397,-0.0397,1.0184,-0.0054,-0.0331,-0.0178,-0.0218,-0.0031,0.0023,-0.4159,-11.4602,-37.5322,
8.4190,0.0397,-0.0397,1.0184,-0.0054,-0.0331,-0.0178,0.0204,-0.0010,-0.0010,-0.4159,-11.4602,-37.5322,
8.4190,0.0397,-0.0397,1.0184,-0.0054,-0.0331,-0.0178,0.0204,-0.0010,-0.0010,-0.4291,-11.4803,-37.5339,
8.4270,0.0397,-0.0397,1.0184,-0.0122,0.0146,-0.0551,0.0204,-0.0010,-0.0010,-0.4291,-11.4803,-37.5339,
8.4390,0.0393,-0.0347,1.0213,-0.0122,0.0146,-0.0551,0.0204,-0.0010,-0.0010,-0.4291,-11.4803,-37.5339,
8.4870,0.0393,-0.0347,1.0213,-0.0122,0.0146,-0.0551,-0.0025,-0.0044,0.0023,-0.4291,-11.4803,-37.5339,
8.4880,0.0393,-0.0347,1.0213,-0.0122,0.0146,-0.0551,-0.0025,-0.0044,0.0023,-0.5035,-11.4918,-37.4859,
8.4890,0.0443,-0.0309,1.0288,-0.0122,0.0146,-0.0551,-0.0025,-0.0044,0.0023,-0.5035,-11.4918,-37.4859,
8.4890,0.0485,-0.0377,1.0200,-0.0122,0.0146,-0.0551,-0.0025,-0.0044,0.0023,-0.5035,-11.4918,-37.4859,
8.4900,0.0485,-0.0377,1.0200,-0.0122,0.0146,-0.0551,-0.0123,-0.0089,0.0017,-0.5035,-11.4918,-37.4859,
8.4900,0.0430,-0.0458,1.0395,-0.0122,0.0146,-0.0551,-0.0123,-0.0089,0.0017,-0.5035,-11.4918,-37.4859,
8.4920,0.0430,-0.0458,1.0395,0.0008,-0.0014,0.0521,-0.0123,-0.0089,0.0017,-0.5035,-11.4918,-37.4859,
8.5060,0.0374,-0.0445,1.0206,0.0008,-0.0014,0.0521,-0.0123,-0.0089,0.0017,-0.5035,-11.4918,-37.4859,
8.5510,0.0374,-0.0445,1.0206,0.0008,-0.0014,0.0521,0.0048,-0.0068,-0.0004,-0.5035,-11.4918,-37.4859,
8.5520,0.0423,-0.0408,1.0131,0.0008,-0.0014,0.0521,0.0048,-0.0068,-0.0004,-0.5035,-11.4918,-37.4859,
8.5530,0.0421,-0.0411,1.0253,0.0008,-0.0014,0.0521,0.0048,-0.0068,-0.0004,-0.5035,-11.4918,-37.4859,
8.5530,0.0421,-0.0411,1.0253,0.0008,-0.0014,0.0521,0.0048,-0.0068,-0.0004,-0.5496,-11.4563,-37.5366,
8.5640,0.0421,-0.0411,1.0253,0.0200,0.0339,0.0337,0.0048,-0.0068,-0.0004,-0.5496,-11.4563,-37.5366,
8.5730,0.0421,-0.0411,1.0253,0.0200,0.0339,0.0337,-0.0163,0.0024,-0.0044,-0.5496,-11.4563,-37.5366,
8.5740,0.0414,-0.0400,1.0266,0.0200,0.0339,0.0337,-0.0163,0.0024,-0.0044,-0.5496,-11.4563,-37.5366,
8.6200,0.0421,-0.0408,1.0289,0.0200,0.0339,0.0337,-0.0163,0.0024,-0.0044,-0.5496,-11.4563,-37.5366,
8.6220,0.0425,-0.0426,1.0323,0.0200,0.0339,0.0337,-0.0163,0.0024,-0.0044,-0.5496,-11.4563,-37.5366,
8.6220,0.0425,-0.0426,1.0323,0.0200,0.0339,0.0337,-0.0117,0.0005,-0.0041,-0.5496,-11.4563,-37.5366,
8.6230,0.0425,-0.0426,1.0323,0.0200,0.0339,0.0337,-0.0117,0.0005,-0.0041,-0.6334,-11.4307,-37.5380,
8.6240,0.0419,-0.0443,1.0224,0.0200,0.0339,0.0337,-0.0117,0.0005,-0.0041,-0.6334,-11.4307,-37.5380,
8.6240,0.0419,-0.0443,1.0224,-0.0146,-0.0013,-0.0379,-0.0117,0.0005,-0.0041,-0.6334,-11.4307,-37.5380,
8.6870,0.0419,-0.0443,1.0224,-0.0146,-0.0013,-0.0379,-0.0071,0.0045,-0.0041,-0.6334,-11.4307,-37.5380,
8.6890,0.0426,-0.0472,1.0346,-0.0146,-0.0013,-0.0379,-0.0071,0.0045,-0.0041,-0.6334,-11.4307,-37.5380,
8.6890,0.0413,-0.0442,1.0251,-0.0146,-0.0013,-0.0379,-0.0071,0.0045,-0.0041,-0.6334,-11.4307,-37.5380,
8.6900,0.0432,-0.0406,1.0199,-0.0146,-0.0013,-0.0379,-0.0071,0.0045,-0.0041,-0.6334,-11.4307,-37.5380,
8.6900,0.0432,-0.0406,1.0199,-0.0146,-0.0013,-0.0379,0.0021,0.0018,-0.0065,-0.6334,-11.4307,-37.5380,
8.6910,0.0432,-0.0406,1.0199,-0.0146,-0.0013,-0.0379,0.0021,0.0018,-0.0065,-0.6832,-11.4415,-37.5019,
8.7000,0.0432,-0.0406,1.0199,0.0015,-0.0034,0.0231,0.0021,0.0018,-0.0065,-0.6832,-11.4415,-37.5019,
8.7060,0.0447,-0.0406,1.0344,0.0015,-0.0034,0.0231,0.0021,0.0018,-0.0065,-0.6832,-11.4415,-37.5019,
8.7520,0.0447,-0.0406,1.0344,0.0015,-0.0034,0.0231,0.0024,-0.0010,-0.0071,-0.6832,-11.4415,-37.5019,
8.7530,0.0432,-0.0380,1.0211,0.0015,-0.0034,0.0231,0.0024,-0.0010,-0.0071,-0.6832,-11.4415,-37.5019,
8.7530,0.0392,-0.0353,1.0122,0.0015,-0.0034,0.0231,0.0024,-0.0010,-0.0071,-0.6832,-11.4415,-37.5019,
8.7540,0.0392,-0.0353,1.0122,0.0015,-0.0034,0.0231,0.0024,-0.0010,-0.0071,-0.7421,-11.4159,-37.5409,
8.7590,0.0392,-0.0353,1.0122,0.0015,-0.0034,0.0231,-0.0138,0.0280,-0.0023,-0.7421,-11.4159,-37.5409,
8.7600,0.0392,-0.0353,1.0122,0.0146,-0.0118,0.0203,-0.0138,0.0280,-0.0023,-0.7421,-11.4159,-37.5409,
8.7600,0.0415,-0.0425,1.0181,0.0146,-0.0118,0.0203,-0.0138,0.0280,-0.0023,-0.7421,-11.4159,-37.5409,
8.8200,0.0415,-0.0425,1.0181,0.0146,-0.0118,0.0203,0.0085,-0.0056,-0.0078,-0.7421,-11.4159,-37.5409,
8.8220,0.0415,-0.0425,1.0181,0.0146,-0.0118,0.0203,0.0085,-0.0056,-0.0078,-0.7794,-11.4159,-37.4908,
8.8230,0.0426,-0.0450,1.0603,0.0146,-0.0118,0.0203,0.0085,-0.0056,-0.0078,-0.7794,-11.4159,-37.4908,
8.8230,0.0403,-0.0450,1.0145,0.0146,-0.0118,0.0203,0.0085,-0.0056,-0.0078,-0.7794,-11.4159,-37.4908,
8.8240,0.0424,-0.0478,1.0293,0.0146,-0.0118,0.0203,0.0085,-0.0056,-0.0078,-0.7794,-11.4159,-37.4908,
8.8370,0.0424,-0.0478,1.0293,-0.0038,0.0301,-0.0481,0.0085,-0.0056,-0.0078,-0.7794,-11.4159,-37.4908,
8.8390,0.0423,-0.0444,1.0367,-0.0038,0.0301,-0.0481,0.0085,-0.0056,-0.0078,-0.7794,-11.4159,-37.4908,
8.8400,0.0423,-0.0444,1.0367,-0.0038,0.0301,-0.0481,0.0051,-0.0257,-0.0071,-0.7794,-11.4159,-37.4908,
8.8830,0.0423,-0.0444,1.0367,-0.0038,0.0301,-0.0481,0.0219,0.0088,-0.0032,-0.7794,-11.4159,-37.4908,
8.8840,0.0423,-0.0444,1.0367,-0.0038,0.0301,-0.0481,0.0219,0.0088,-0.0032,-0.7651,-11.3761,-37.4878,
8.8850,0.0425,-0.0371,1.0093,-0.0038,0.0301,-0.0481,0.0219,0.0088,-0.0032,-0.7651,-11.3761,-37.4878,
8.8850,0.0429,-0.0312,1.0216,-0.0038,0.0301,-0.0481,0.0219,0.0088,-0.0032,-0.7651,-11.3761,-37.4878,
8.8950,0.0481,-0.0334,1.0282,-0.0038,0.0301,-0.0481,0.0219,0.0088,-0.0032,-0.7651,-11.3761,-37.4878,
8.8960,0.0481,-0.0334,1.0282,0.0014,-0.0442,0.1002,0.0219,0.0088,-0.0032,-0.7651,-11.3761,-37.4878,
8.9520,0.0457,-0.0435,1.0284,0.0014,-0.0442,0.1002,0.0219,0.0088,-0.0032,-0.7651,-11.3761,-37.4878,
8.9540,0.0457,-0.0435,1.0284,0.0014,-0.0442,0.1002,-0.0153,0.0100,-0.0035,-0.7651,-11.3761,-37.4878,
8.9550,0.0457,-0.0435,1.0284,0.0014,-0.0442,0.1002,-0.0153,0.0100,-0.0035,-0.7647,-11.3549,-37.4351,
8.9560,0.0369,-0.0497,1.0274,0.0014,-0.0442,0.1002,-0.0153,0.0100,-0.0035,-0.7647,-11.3549,-37.4351,
8.9740,0.0347,-0.0510,1.0224,0.0014,-0.0442,0.1002,-0.0153,0.0100,-0.0035,-0.7647,-11.3549,-37.4351,
8.9760,0.0347,-0.0510,1.0224,0.0014,-0.0442,0.1002,-0.0004,0.0137,-0.0053,-0.7647,-11.3549,-37.4351,
8.9770,0.0347,-0.0510,1.0224,0.0264,0.0573,-0.0458,-0.0004,0.0137,-0.0053,-0.7647,-11.3549,-37.4351,
8.9770,0.0382,-0.0483,1.0293,0.0264,0.0573,-0.0458,-0.0004,0.0137,-0.0053,-0.7647,-11.3549,-37.4351,
9.0160,0.0405,-0.0439,1.0264,0.0264,0.0573,-0.0458,-0.0004,0.0137,-0.0053,-0.7647,-11.3549,-37.4351,
9.0180,0.0405,-0.0439,1.0264,0.0264,0.0573,-0.0458,-0.0004,0.0021,-0.0068,-0.7647,-11.3549,-37.4351,
9.0180,0.0405,-0.0439,1.0264,0.0264,0.0573,-0.0458,-0.0004,0.0021,-0.0068,-0.7404,-11.3648,-37.4734,
9.0190,0.0418,-0.0417,1.0203,0.0264,0.0573,-0.0458,-0.0004,0.0021,-0.0068,-0.7404,-11.3648,-37.4734,
9.0320,0.0418,-0.0417,1.0203,0.0264,0.0573,-0.0458,0.0008,0.0011,-0.0071,-0.7404,-11.3648,-37.4734,
9.0330,0.0405,-0.0399,1.0261,0.0264,0.0573,-0.0458,0.0008,0.0011,-0.0071,-0.7404,-11.3648,-37.4734,
9.0330,0.0405,-0.0399,1.0261,-0.0210,-0.0634,0.0085,0.0008,0.0011,-0.0071,-0.7404,-11.3648,-37.4734,
9.0860,0.0402,-0.0404,1.0188,-0.0210,-0.0634,0.0085,0.0008,0.0011,-0.0071,-0.7404,-11.3648,-37.4734,
9.0880,0.0402,-0.0404,1.0188,-0.0210,-0.0634,0.0085,0.0008,0.0011,-0.0071,-0.7402,-11.3652,-37.4863,
9.0890,0.0402,-0.0404,1.0188,-0.0210,-0.0634,0.0085,-0.0114,-0.0013,-0.0053,-0.7402,-11.3652,-37.4863,
9.0900,0.0385,-0.0382,1.0339,-0.0210,-0.0634,0.0085,-0.0114,-0.0013,-0.0053,-0.7402,-11.3652,-37.4863,
9.1080,0.0415,-0.0428,1.0041,-0.0210,-0.0634,0.0085,-0.0114,-0.0013,-0.0053,-0.7402,-11.3652,-37.4863,
9.1090,0.0415,-0.0428,1.0041,-0.0049,0.0034,-0.0041,-0.0114,-0.0013,-0.0053,-0.7402,-11.3652,-37.4863,
9.1510,0.0415,-0.0428,1.0041,-0.0049,0.0034,-0.0041,-0.0224,-0.0044,-0.0032,-0.7402,-11.3652,-37.4863,
9.1520,0.0415,-0.0428,1.0041,-0.0049,0.0034,-0.0041,-0.0224,-0.0044,-0.0032,-0.7024,-11.3333,-37.4573,
9.1530,0.0456,-0.0454,1.0567,-0.0049,0.0034,-0.0041,-0.0224,-0.0044,-0.0032,-0.7024,-11.3333,-37.4573,
9.1540,0.0456,-0.0454,1.0567,-0.0049,0.0034,-0.0041,0.0253,-0.0053,-0.0065,-0.7024,-11.3333,-37.4573,
9.1540,0.0394,-0.0431,1.0264,-0.0049,0.0034,-0.0041,0.0253,-0.0053,-0.0065,-0.7024,-11.3333,-37.4573,
9.1550,0.0394,-0.0381,1.0158,-0.0049,0.0034,-0.0041,0.0253,-0.0053,-0.0065,-0.7024,-11.3333,-37.4573,
9.1690,0.0394,-0.0381,1.0158,-0.0035,0.0071,-0.0199,0.0253,-0.0053,-0.0065,-0.7024,-11.3333,-37.4573,
9.1710,0.0426,-0.0362,1.0344,-0.0035,0.0071,-0.0199,0.0253,-0.0053,-0.0065,-0.7024,-11.3333,-37.4573,
9.2180,0.0469,-0.0377,1.0189,-0.0035,0.0071,-0.0199,0.0253,-0.0053,-0.0065,-0.7024,-11.3333,-37.4573,
9.2190,0.0469,-0.0377,1.0189,-0.0035,0.0071,-0.0199,-0.0016,-0.0025,-0.0029,-0.7024,-11.3333,-37.4573,
9.2190,0.0469,-0.0377,1.0189,-0.0035,0.0071,-0.0199,-0.0016,-0.0025,-0.0029,-0.7010,-11.3035,-37.4425,
9.2200,0.0443,-0.0431,1.0282,-0.0035,0.0071,-0.0199,-0.0016,-0.0025,-0.0029,-0.7010,-11.3035,-37.4425,
9.2390,0.0392,-0.0480,1.0288,-0.0035,0.0071,-0.0199,-0.0016,-0.0025,-0.0029,-0.7010,-11.3035,-37.4425,
9.2410,0.0392,-0.0480,1.0288,-0.0035,0.0071,-0.0199,0.0015,0.0021,-0.0041,-0.7010,-11.3035,-37.4425,
9.2470,0.0392,-0.0480,1.0288,-0.0046,0.0167,0.0509,0.0015,0.0021,-0.0041,-0.7010,-11.3035,-37.4425,
9.2850,0.0392,-0.0480,1.0288,-0.0046,0.0167,0.0509,-0.0007,-0.0001,-0.0065,-0.7010,-11.3035,-37.4425,
9.2860,0.0394,-0.0459,1.0177,-0.0046,0.0167,0.0509,-0.0007,-0.0001,-0.0065,-0.7010,-11.3035,-37.4425,
9.2860,0.0405,-0.0437,1.0228,-0.0046,0.0167,0.0509,-0.0007,-0.0001,-0.0065,-0.7010,-11.3035,-37.4425,
9.2870,0.0405,-0.0437,1.0228,-0.0046,0.0167,0.0509,-0.0007,-0.0001,-0.0065,-0.7155,-11.3539,-37.4719,
9.3060,0.0405,-0.0437,1.0228,-0.0046,0.0167,0.0509,0.0045,0.0128,-0.0090,-0.7155,-11.3539,-37.4719,
9.3080,0.0418,-0.0455,1.0235,-0.0046,0.0167,0.0509,0.0045,0.0128,-0.0090,-0.7155,-11.3539,-37.4719,
9.3080,0.0396,-0.0467,1.0236,-0.0046,0.0167,0.0509,0.0045,0.0128,-0.0090,-0.7155,-11.3539,-37.4719,
9.3090,0.0396,-0.0467,1.0236,0.0177,-0.0163,-0.0139,0.0045,0.0128,-0.0090,-0.7155,-11.3539,-37.4719,
9.3510,0.0380,-0.0447,1.0317,0.0177,-0.0163,-0.0139,0.0045,0.0128,-0.0090,-0.7155,-11.3539,-37.4719,
9.3530,0.0380,-0.0447,1.0317,0.0177,-0.0163,-0.0139,0.0008,0.0128,-0.0090,-0.7155,-11.3539,-37.4719,
9.3530,0.0396,-0.0441,1.0274,0.0177,-0.0163,-0.0139,0.0008,0.0128,-0.0090,-0.7155,-11.3539,-37.4719,
9.3530,0.0396,-0.0441,1.0274,0.0177,-0.0163,-0.0139,0.0008,0.0128,-0.0090,-0.7150,-11.3551,-37.5105,
9.3730,0.0394,-0.0421,1.0268,0.0177,-0.0163,-0.0139,0.0008,0.0128,-0.0090,-0.7150,-11.3551,-37.5105,
9.3830,0.0394,-0.0421,1.0268,0.0011,-0.0332,-0.0301,0.0008,0.0128,-0.0090,-0.7150,-11.3551,-37.5105,
9.4180,0.0390,-0.0400,1.0242,0.0011,-0.0332,-0.0301,0.0008,0.0128,-0.0090,-0.7150,-11.3551,-37.5105,
9.4190,0.0390,-0.0400,1.0242,0.0011,-0.0332,-0.0301,0.0054,0.0094,-0.0050,-0.7150,-11.3551,-37.5105,
9.4190,0.0376,-0.0382,1.0234,0.0011,-0.0332,-0.0301,0.0054,0.0094,-0.0050,-0.7150,-11.3551,-37.5105,
9.4200,0.0376,-0.0382,1.0234,0.0011,-0.0332,-0.0301,0.0054,0.0094,-0.0050,-0.7657,-11.3970,-37.5277,
9.4390,0.0385,-0.0398,1.0296,0.0011,-0.0332,-0.0301,0.0054,0.0094,-0.0050,-0.7657,-11.3970,-37.5277,
9.4410,0.0385,-0.0398,1.0296,0.0011,-0.0332,-0.0301,-0.0013,0.0042,-0.0035,-0.7657,-11.3970,-37.5277,
9.4420,0.0399,-0.0421,1.0262,0.0011,-0.0332,-0.0301,-0.0013,0.0042,-0.0035,-0.7657,-11.3970,-37.5277,
9.4430,0.0399,-0.0421,1.0262,-0.0104,-0.0088,0.0234,-0.0013,0.0042,-0.0035,-0.7657,-11.3970,-37.5277,
9.4840,0.0390,-0.0399,1.0137,-0.0104,-0.0088,0.0234,-0.0013,0.0042,-0.0035,-0.7657,-11.3970,-37.5277,
9.4850,0.0413,-0.0443,1.0048,-0.0104,-0.0088,0.0234,-0.0013,0.0042,-0.0035,-0.7657,-11.3970,-37.5277,
9.4850,0.0413,-0.0443,1.0048,-0.0104,-0.0088,0.0234,-0.0106,0.0008,-0.0027,-0.7657,-11.3970,-37.5277,
9.4860,0.0413,-0.0443,1.0048,-0.0104,-0.0088,0.0234,-0.0106,0.0008,-0.0027,-0.7662,-11.4178,-37.5675,
9.5080,0.0413,-0.0443,1.0048,-0.0104,-0.0088,0.0234,-0.0127,0.0375,-0.0034,-0.7662,-11.4178,-37.5675,
9.5090,0.0430,-0.0494,1.0610,-0.0104,-0.0088,0.0234,-0.0127,0.0375,-0.0034,-0.7662,-11.4178,-37.5675,
9.5240,0.0430,-0.0494,1.0610,0.0011,0.0240,0.0023,-0.0127,0.0375,-0.0034,-0.7662,-11.4178,-37.5675,
9.5520,0.0430,-0.0494,1.0610,0.0011,0.0240,0.0023,-0.0127,0.0375,-0.0034,-0.7528,-11.3980,-37.5787,
9.5540,0.0430,-0.0494,1.0610,0.0011,0.0240,0.0023,0.0050,-0.0285,-0.0046,-0.7528,-11.3980,-37.5787,
9.5550,0.0375,-0.0467,1.0258,0.0011,0.0240,0.0023,0.0050,-0.0285,-0.0046,-0.7528,-11.3980,-37.5787,
9.5550,0.0360,-0.0449,1.0212,0.0011,0.0240,0.0023,0.0050,-0.0285,-0.0046,-0.7528,-11.3980,-37.5787,
9.5720,0.0373,-0.0442,1.0404,0.0011,0.0240,0.0023,0.0050,-0.0285,-0.0046,-0.7528,-11.3980,-37.5787,
9.5770,0.0398,-0.0375,1.0069,0.0011,0.0240,0.0023,0.0050,-0.0285,-0.0046,-0.7528,-11.3980,-37.5787,
9.5780,0.0398,-0.0375,1.0069,0.0057,-0.0349,0.0154,0.0050,-0.0285,-0.0046,-0.7528,-11.3980,-37.5787,
9.5780,0.0398,-0.0375,1.0069,0.0057,-0.0349,0.0154,0.0340,-0.0071,-0.0015,-0.7528,-11.3980,-37.5787,
9.6170,0.0398,-0.0375,1.0069,0.0057,-0.0349,0.0154,0.0340,-0.0071,-0.0015,-0.6681,-11.4036,-37.5632,
9.6180,0.0398,-0.0375,1.0069,0.0057,-0.0349,0.0154,-0.0045,0.0033,0.0031,-0.6681,-11.4036,-37.5632,
9.6180,0.0393,-0.0349,1.0266,0.0057,-0.0349,0.0154,-0.0045,0.0033,0.0031,-0.6681,-11.4036,-37.5632,
9.6190,0.0438,-0.0393,1.0345,0.0057,-0.0349,0.0154,-0.0045,0.0033,0.0031,-0.6681,-11.4036,-37.5632,
9.6390,0.0453,-0.0420,1.0285,0.0057,-0.0349,0.0154,-0.0045,0.0033,0.0031,-0.6681,-11.4036,-37.5632,
9.6560,0.0453,-0.0420,1.0285,-0.0193,-0.0069,-0.0334,-0.0045,0.0033,0.0031,-0.6681,-11.4036,-37.5632,
9.6840,0.0453,-0.0420,1.0285,-0.0193,-0.0069,-0.0334,0.0041,0.0014,-0.0000,-0.6681,-11.4036,-37.5632,
9.6850,0.0402,-0.0439,1.0261,-0.0193,-0.0069,-0.0334,0.0041,0.0014,-0.0000,-0.6681,-11.4036,-37.5632,
9.6860,0.0357,-0.0459,1.0161,-0.0193,-0.0069,-0.0334,0.0041,0.0014,-0.0000,-0.6681,-11.4036,-37.5632,
9.6870,0.0357,-0.0459,1.0161,-0.0193,-0.0069,-0.0334,0.0041,0.0014,-0.0000,-0.5846,-11.4395,-37.5754,
9.7060,0.0359,-0.0471,1.0216,-0.0193,-0.0069,-0.0334,0.0041,0.0014,-0.0000,-0.5846,-11.4395,-37.5754,
9.7070,0.0359,-0.0471,1.0216,-0.0193,-0.0069,-0.0334,0.0041,0.0066,-0.0031,-0.5846,-11.4395,-37.5754,
9.7140,0.0387,-0.0470,1.0306,-0.0193,-0.0069,-0.0334,0.0041,0.0066,-0.0031,-0.5846,-11.4395,-37.5754,
9.7150,0.0387,-0.0470,1.0306,0.0285,0.0187,0.0367,0.0041,0.0066,-0.0031,-0.5846,-11.4395,-37.5754,
9.7510,0.0393,-0.0427,1.0272,0.0285,0.0187,0.0367,0.0041,0.0066,-0.0031,-0.5846,-11.4395,-37.5754,
9.7520,0.0393,-0.0427,1.0272,0.0285,0.0187,0.0367,0.0044,-0.0022,-0.0034,-0.5846,-11.4395,-37.5754,
9.7520,0.0393,-0.0427,1.0272,0.0285,0.0187,0.0367,0.0044,-0.0022,-0.0034,-0.5239,-11.4584,-37.6387,
9.7730,0.0401,-0.0409,1.0221,0.0285,0.0187,0.0367,0.0044,-0.0022,-0.0034,-0.5239,-11.4584,-37.6387,
9.7750,0.0390,-0.0426,1.0179,0.0285,0.0187,0.0367,0.0044,-0.0022,-0.0034,-0.5239,-11.4584,-37.6387,
9.7760,0.0390,-0.0426,1.0179,0.0285,0.0187,0.0367,0.0041,0.0011,-0.0009,-0.5239,-11.4584,-37.6387,
9.7930,0.0390,-0.0426,1.0179,-0.0231,-0.0462,-0.0286,0.0041,0.0011,-0.0009,-0.5239,-11.4584,-37.6387,
9.8180,0.0375,-0.0405,1.0328,-0.0231,-0.0462,-0.0286,0.0041,0.0011,-0.0009,-0.5239,-11.4584,-37.6387,
9.8190,0.0375,-0.0405,1.0328,-0.0231,-0.0462,-0.0286,0.0041,0.0011,-0.0009,-0.4368,-11.4146,-37.6072,
9.8200,0.0375,-0.0405,1.0328,-0.0231,-0.0462,-0.0286,-0.0161,-0.0025,0.0009,-0.4368,-11.4146,-37.6072,
9.8210,0.0416,-0.0464,1.0065,-0.0231,-0.0462,-0.0286,-0.0161,-0.0025,0.0009,-0.4368,-11.4146,-37.6072,
9.8390,0.0394,-0.0454,1.0350,-0.0231,-0.0462,-0.0286,-0.0161,-0.0025,0.0009,-0.4368,-11.4146,-37.6072,
9.8520,0.0394,-0.0454,1.0350,-0.0231,-0.0462,-0.0286,-0.0008,0.0021,-0.0018,-0.4368,-11.4146,-37.6072,
9.8530,0.0394,-0.0454,1.0350,-0.0022,0.0042,-0.0039,-0.0008,0.0021,-0.0018,-0.4368,-11.4146,-37.6072,
9.8530,0.0387,-0.0431,1.0368,-0.0022,0.0042,-0.0039,-0.0008,0.0021,-0.0018,-0.4368,-11.4146,-37.6072,
9.8840,0.0387,-0.0431,1.0368,-0.0022,0.0042,-0.0039,-0.0008,0.0021,-0.0018,-0.4485,-11.4163,-37.6462,
9.8860,0.0377,-0.0395,1.0087,-0.0022,0.0042,-0.0039,-0.0008,0.0021,-0.0018,-0.4485,-11.4163,-37.6462,
9.9070,0.0377,-0.0395,1.0087,-0.0022,0.0042,-0.0039,-0.0017,-0.0019,-0.0006,-0.4485,-11.4163,-37.6462,
9.9090,0.0420,-0.0369,1.0363,-0.0022,0.0042,-0.0039,-0.0017,-0.0019,-0.0006,-0.4485,-11.4163,-37.6462,
9.9300,0.0438,-0.0389,1.0180,-0.0022,0.0042,-0.0039,-0.0017,-0.0019,-0.0006,-0.4485,-11.4163,-37.6462,
9.9310,0.0438,-0.0389,1.0180,0.0021,-0.0186,0.0011,-0.0017,-0.0019,-0.0006,-0.4485,-11.4163,-37.6462,
9.9510,0.0387,-0.0438,1.0305,0.0021,-0.0186,0.0011,-0.0017,-0.0019,-0.0006,-0.4485,-11.4163,-37.6462,
9.9520,0.0374,-0.0456,1.0225,0.0021,-0.0186,0.0011,-0.0017,-0.0019,-0.0006,-0.4485,-11.4163,-37.6462,
9.9530,0.0374,-0.0456,1.0225,0.0021,-0.0186,0.0011,-0.0020,0.0060,-0.0015,-0.4485,-11.4163,-37.6462,
9.9530,0.0374,-0.0456,1.0225,0.0021,-0.0186,0.0011,-0.0020,0.0060,-0.0015,-0.4250,-11.4353,-37.6594,
9.9720,0.0374,-0.0456,1.0225,0.0021,-0.0186,0.0011,-0.0005,0.0066,-0.0024,-0.4250,-11.4353,-37.6594,
9.9740,0.0380,-0.0469,1.0133,0.0021,-0.0186,0.0011,-0.0005,0.0066,-0.0024,-0.4250,-11.4353,-37.6594,
9.9900,0.0380,-0.0469,1.0133,0.0179,0.0339,-0.0356,-0.0005,0.0066,-0.0024,-0.4250,-11.4353,-37.6594,
9.9920,0.0376,-0.0498,1.0328,0.0179,0.0339,-0.0356,-0.0005,0.0066,-0.0024,-0.4250,-11.4353,-37.6594,
10.0180,0.0376,-0.0498,1.0328,0.0179,0.0339,-0.0356,-0.0026,0.0066,-0.0037,-0.4250,-11.4353,-37.6594,
10.0200,0.0376,-0.0498,1.0328,0.0179,0.0339,-0.0356,-0.0026,0.0066,-0.0037,-0.4124,-11.4245,-37.6455,
10.0210,0.0368,-0.0469,1.0256,0.0179,0.0339,-0.0356,-0.0026,0.0066,-0.0037,-0.4124,-11.4245,-37.6455,
10.0400,0.0385,-0.0441,1.0157,0.0179,0.0339,-0.0356,-0.0026,0.0066,-0.0037,-0.4124,-11.4245,-37.6455,
10.0660,0.0385,-0.0441,1.0157,-0.0099,-0.0432,-0.0035,-0.0026,0.0066,-0.0037,-0.4124,-11.4245,-37.6455,
10.0680,0.0385,-0.0441,1.0157,-0.0099,-0.0432,-0.0035,-0.0005,0.0033,-0.0027,-0.4124,-11.4245,-37.6455,
10.0680,0.0408,-0.0458,1.0286,-0.0099,-0.0432,-0.0035,-0.0005,0.0033,-0.0027,-0.4124,-11.4245,-37.6455,
10.0840,0.0393,-0.0443,1.0286,-0.0099,-0.0432,-0.0035,-0.0005,0.0033,-0.0027,-0.4124,-11.4245,-37.6455,
10.0850,0.0393,-0.0443,1.0286,-0.0099,-0.0432,-0.0035,-0.0005,0.0033,-0.0027,-0.3880,-11.4234,-37.6446,
10.1060,0.0393,-0.0443,1.0286,-0.0099,-0.0432,-0.0035,0.0065,0.0021,-0.0009,-0.3880,-11.4234,-37.6446,
10.1070,0.0397,-0.0427,1.0188,-0.0099,-0.0432,-0.0035,0.0065,0.0021,-0.0009,-0.3880,-11.4234,-37.6446,
10.1070,0.0385,-0.0425,1.0214,-0.0099,-0.0432,-0.0035,0.0065,0.0021,-0.0009,-0.3880,-11.4234,-37.6446,
10.1240,0.0380,-0.0433,1.0208,-0.0099,-0.0432,-0.0035,0.0065,0.0021,-0.0009,-0.3880,-11.4234,-37.6446,
10.1260,0.0380,-0.0433,1.0208,-0.0099,-0.0432,-0.0035,-0.0045,0.0014,0.0003,-0.3880,-11.4234,-37.6446,
10.1270,0.0380,-0.0433,1.0208,0.0021,-0.0240,-0.0056,-0.0045,0.0014,0.0003,-0.3880,-11.4234,-37.6446,
10.1520,0.0385,-0.0447,1.0304,0.0021,-0.0240,-0.0056,-0.0045,0.0014,0.0003,-0.3880,-11.4234,-37.6446,
10.1540,0.0385,-0.0447,1.0304,0.0021,-0.0240,-0.0056,-0.0045,0.0014,0.0003,-0.4360,-11.4166,-37.6715,
10.1720,0.0402,-0.0422,1.0247,0.0021,-0.0240,-0.0056,-0.0045,0.0014,0.0003,-0.4360,-11.4166,-37.6715,
10.1740,0.0402,-0.0422,1.0247,0.0021,-0.0240,-0.0056,-0.0026,-0.0004,0.0006,-0.4360,-11.4166,-37.6715,
10.2030,0.0403,-0.0400,1.0174,0.0021,-0.0240,-0.0056,-0.0026,-0.0004,0.0006,-0.4360,-11.4166,-37.6715,
10.2050,0.0403,-0.0400,1.0174,0.0020,0.0048,-0.0346,-0.0026,-0.0004,0.0006,-0.4360,-11.4166,-37.6715,
10.2180,0.0403,-0.0444,1.0064,0.0020,0.0048,-0.0346,-0.0026,-0.0004,0.0006,-0.4360,-11.4166,-37.6715,
10.2190,0.0403,-0.0444,1.0064,0.0020,0.0048,-0.0346,-0.0026,-0.0004,0.0006,-0.4710,-11.3887,-37.6710,
10.2200,0.0403,-0.0444,1.0064,0.0020,0.0048,-0.0346,-0.0158,0.0076,0.0037,-0.4710,-11.3887,-37.6710,
10.2400,0.0404,-0.0503,1.0344,0.0020,0.0048,-0.0346,-0.0158,0.0076,0.0037,-0.4710,-11.3887,-37.6710,
10.2610,0.0404,-0.0503,1.0344,0.0142,0.0149,-0.0164,-0.0158,0.0076,0.0037,-0.4710,-11.3887,-37.6710,
10.2620,0.0404,-0.0503,1.0344,0.0142,0.0149,-0.0164,-0.0026,0.0256,0.0000,-0.4710,-11.3887,-37.6710,
10.2630,0.0382,-0.0499,1.0395,0.0142,0.0149,-0.0164,-0.0026,0.0256,0.0000,-0.4710,-11.3887,-37.6710,
10.2640,0.0359,-0.0470,1.0163,0.0142,0.0149,-0.0164,-0.0026,0.0256,0.0000,-0.4710,-11.3887,-37.6710,
10.2840,0.0359,-0.0470,1.0163,0.0142,0.0149,-0.0164,-0.0054,-0.0270,0.0024,-0.4710,-11.3887,-37.6710,
10.2870,0.0359,-0.0470,1.0163,0.0142,0.0149,-0.0164,-0.0054,-0.0270,0.0024,-0.5322,-11.3911,-37.6604,
10.2880,0.0354,-0.0469,1.0350,0.0142,0.0149,-0.0164,-0.0054,-0.0270,0.0024,-0.5322,-11.3911,-37.6604,
10.3060,0.0409,-0.0453,1.0117,0.0142,0.0149,-0.0164,-0.0054,-0.0270,0.0024,-0.5322,-11.3911,-37.6604,
10.3400,0.0409,-0.0453,1.0117,0.0074,-0.0466,0.0099,-0.0054,-0.0270,0.0024,-0.5322,-11.3911,-37.6604,
10.3410,0.0409,-0.0453,1.0117,0.0074,-0.0466,0.0099,0.0160,0.0176,0.0043,-0.5322,-11.3911,-37.6604,
10.3420,0.0362,-0.0398,1.0104,0.0074,-0.0466,0.0099,0.0160,0.0176,0.0043,-0.5322,-11.3911,-37.6604,
10.3510,0.0366,-0.0399,1.0305,0.0074,-0.0466,0.0099,0.0160,0.0176,0.0043,-0.5322,-11.3911,-37.6604,
10.3510,0.0366,-0.0399,1.0305,0.0074,-0.0466,0.0099,0.0160,0.0176,0.0043,-0.5552,-11.3733,-37.6858,
10.3720,0.0449,-0.0438,1.0299,0.0074,-0.0466,0.0099,0.0160,0.0176,0.0043,-0.5552,-11.3733,-37.6858,
10.3730,0.0449,-0.0438,1.0299,0.0074,-0.0466,0.0099,-0.0179,0.0234,0.0052,-0.5552,-11.3733,-37.6858,
10.3980,0.0449,-0.0438,1.0299,0.0074,-0.0466,0.0099,-0.0051,0.0280,-0.0018,-0.5552,-11.3733,-37.6858,
10.4000,0.0401,-0.0487,1.0293,0.0074,-0.0466,0.0099,-0.0051,0.0280,-0.0018,-0.5552,-11.3733,-37.6858,
10.4000,0.0318,-0.0515,1.0192,0.0074,-0.0466,0.0099,-0.0051,0.0280,-0.0018,-0.5552,-11.3733,-37.6858,
10.4010,0.0318,-0.0515,1.0192,0.0101,0.0126,-0.0316,-0.0051,0.0280,-0.0018,-0.5552,-11.3733,-37.6858,
10.4170,0.0318,-0.0515,1.0192,0.0101,0.0126,-0.0316,-0.0051,0.0280,-0.0018,-0.5672,-11.3632,-37.6599,
10.4190,0.0308,-0.0513,1.0252,0.0101,0.0126,-0.0316,-0.0051,0.0280,-0.0018,-0.5672,-11.3632,-37.6599,
10.4400,0.0308,-0.0513,1.0252,0.0101,0.0126,-0.0316,-0.0029,0.0127,-0.0009,-0.5672,-11.3632,-37.6599,
10.4410,0.0327,-0.0488,1.0275,0.0101,0.0126,-0.0316,-0.0029,0.0127,-0.0009,-0.5672,-11.3632,-37.6599,
10.4760,0.0380,-0.0464,1.0245,0.0101,0.0126,-0.0316,-0.0029,0.0127,-0.0009,-0.5672,-11.3632,-37.6599,
10.4770,0.0380,-0.0464,1.0245,0.0101,0.0126,-0.0316,-0.0066,0.0045,0.0040,-0.5672,-11.3632,-37.6599,
10.4770,0.0376,-0.0464,1.0212,0.0101,0.0126,-0.0316,-0.0066,0.0045,0.0040,-0.5672,-11.3632,-37.6599,
10.4780,0.0376,-0.0464,1.0212,0.0306,-0.0185,0.0193,-0.0066,0.0045,0.0040,-0.5672,-11.3632,-37.6599,
10.4840,0.0376,-0.0464,1.0212,0.0306,-0.0185,0.0193,-0.0066,0.0045,0.0040,-0.5031,-11.2906,-37.6146,
10.5060,0.0358,-0.0471,1.0252,0.0306,-0.0185,0.0193,-0.0066,0.0045,0.0040,-0.5031,-11.2906,-37.6146,
10.5340,0.0358,-0.0471,1.0252,0.0306,-0.0185,0.0193,-0.0106,0.0057,0.0040,-0.5031,-11.2906,-37.6146,
10.5350,0.0363,-0.0474,1.0251,0.0306,-0.0185,0.0193,-0.0106,0.0057,0.0040,-0.5031,-11.2906,-37.6146,
10.5360,0.0348,-0.0445,1.0212,0.0306,-0.0185,0.0193,-0.0106,0.0057,0.0040,-0.5031,-11.2906,-37.6146,
10.5360,0.0348,-0.0445,1.0212,-0.0083,-0.0240,0.0069,-0.0106,0.0057,0.0040,-0.5031,-11.2906,-37.6146,
10.5510,0.0348,-0.0445,1.0212,-0.0083,-0.0240,0.0069,-0.0106,0.0057,0.0040,-0.4044,-11.2670,-37.6226,
10.5730,0.0388,-0.0482,1.0095,-0.0083,-0.0240,0.0069,-0.0106,0.0057,0.0040,-0.4044,-11.2670,-37.6226,
10.5740,0.0388,-0.0482,1.0095,-0.0083,-0.0240,0.0069,-0.0173,0.0039,0.0061,-0.4044,-11.2670,-37.6226,
10.6130,0.0388,-0.0482,1.0095,-0.0083,-0.0240,0.0069,0.0157,-0.0007,0.0018,-0.4044,-11.2670,-37.6226,
10.6150,0.0386,-0.0481,1.0577,-0.0083,-0.0240,0.0069,0.0157,-0.0007,0.0018,-0.4044,-11.2670,-37.6226,
10.6150,0.0386,-0.0481,1.0577,0.0047,-0.0048,-0.0107,0.0157,-0.0007,0.0018,-0.4044,-11.2670,-37.6226,
10.6160,0.0365,-0.0483,1.0177,0.0047,-0.0048,-0.0107,0.0157,-0.0007,0.0018,-0.4044,-11.2670,-37.6226,
10.6180,0.0335,-0.0427,1.0125,0.0047,-0.0048,-0.0107,0.0157,-0.0007,0.0018,-0.4044,-11.2670,-37.6226,
10.6180,0.0335,-0.0427,1.0125,0.0047,-0.0048,-0.0107,0.0157,-0.0007,0.0018,-0.3776,-11.2385,-37.6841,
10.6390,0.0381,-0.0395,1.0338,0.0047,-0.0048,-0.0107,0.0157,-0.0007,0.0018,-0.3776,-11.2385,-37.6841,
10.6410,0.0381,-0.0395,1.0338,0.0047,-0.0048,-0.0107,0.0007,-0.0056,0.0040,-0.3776,-11.2385,-37.6841,
10.6710,0.0401,-0.0424,1.0225,0.0047,-0.0048,-0.0107,0.0007,-0.0056,0.0040,-0.3776,-11.2385,-37.6841,
10.6730,0.0369,-0.0471,1.0355,0.0047,-0.0048,-0.0107,0.0007,-0.0056,0.0040,-0.3776,-11.2385,-37.6841,
10.6740,0.0369,-0.0471,1.0355,0.0151,-0.0143,0.0064,0.0007,-0.0056,0.0040,-0.3776,-11.2385,-37.6841,
10.6740,0.0369,-0.0471,1.0355,0.0151,-0.0143,0.0064,0.0038,-0.0025,0.0061,-0.3776,-11.2385,-37.6841,
10.6840,0.0369,-0.0471,1.0355,0.0151,-0.0143,0.0064,0.0038,-0.0025,0.0061,-0.3512,-11.1981,-37.6806,
10.7060,0.0352,-0.0515,1.0195,0.0151,-0.0143,0.0064,0.0038,-0.0025,0.0061,-0.3512,-11.1981,-37.6806,
10.7500,0.0352,-0.0515,1.0195,0.0154,0.0268,0.0385,0.0038,-0.0025,0.0061,-0.3512,-11.1981,-37.6806,
10.7510,0.0336,-0.0503,1.0146,0.0154,0.0268,0.0385,0.0038,-0.0025,0.0061,-0.3512,-11.1981,-37.6806,
10.7520,0.0336,-0.0503,1.0146,0.0154,0.0268,0.0385,0.0078,-0.0041,0.0015,-0.3512,-11.1981,-37.6806,
10.7520,0.0330,-0.0511,1.0245,0.0154,0.0268,0.0385,0.0078,-0.0041,0.0015,-0.3512,-11.1981,-37.6806,
10.7530,0.0355,-0.0519,1.0299,0.0154,0.0268,0.0385,0.0078,-0.0041,0.0015,-0.3512,-11.1981,-37.6806,
10.7530,0.0355,-0.0519,1.0299,0.0154,0.0268,0.0385,-0.0017,0.0024,0.0009,-0.3512,-11.1981,-37.6806,
10.7540,0.0355,-0.0519,1.0299,0.0154,0.0268,0.0385,-0.0017,0.0024,0.0009,-0.3497,-11.1797,-37.7180,
10.7720,0.0344,-0.0498,1.0191,0.0154,0.0268,0.0385,-0.0017,0.0024,0.0009,-0.3497,-11.1797,-37.7180,
10.8080,0.0344,-0.0498,1.0191,-0.0147,-0.0491,-0.0318,-0.0017,0.0024,0.0009,-0.3497,-11.1797,-37.7180,
10.8090,0.0344,-0.0498,1.0191,-0.0147,-0.0491,-0.0318,0.0001,0.0030,0.0031,-0.3497,-11.1797,-37.7180,
10.8090,0.0348,-0.0477,1.0257,-0.0147,-0.0491,-0.0318,0.0001,0.0030,0.0031,-0.3497,-11.1797,-37.7180,
10.8100,0.0344,-0.0480,1.0264,-0.0147,-0.0491,-0.0318,0.0001,0.0030,0.0031,-0.3497,-11.1797,-37.7180,
10.8180,0.0344,-0.0480,1.0264,-0.0147,-0.0491,-0.0318,0.0001,0.0030,0.0031,-0.2252,-11.1251,-37.7102,
10.8390,0.0360,-0.0478,1.0267,-0.0147,-0.0491,-0.0318,0.0001,0.0030,0.0031,-0.2252,-11.1251,-37.7102,
10.8400,0.0360,-0.0478,1.0267,-0.0147,-0.0491,-0.0318,-0.0023,0.0018,0.0046,-0.2252,-11.1251,-37.7102,
10.8850,0.0360,-0.0478,1.0267,-0.0147,-0.0491,-0.0318,0.0059,-0.0001,0.0046,-0.2252,-11.1251,-37.7102,
10.8870,0.0365,-0.0477,1.0257,-0.0147,-0.0491,-0.0318,0.0059,-0.0001,0.0046,-0.2252,-11.1251,-37.7102,
10.8880,0.0365,-0.0458,1.0252,-0.0147,-0.0491,-0.0318,0.0059,-0.0001,0.0046,-0.2252,-11.1251,-37.7102,
10.8880,0.0365,-0.0458,1.0252,-0.0147,-0.0491,-0.0318,0.0059,-0.0001,0.0046,-0.1047,-11.1381,-37.6683,
10.8890,0.0366,-0.0452,1.0217,-0.0147,-0.0491,-0.0318,0.0059,-0.0001,0.0046,-0.1047,-11.1381,-37.6683,
10.8900,0.0366,-0.0452,1.0217,-0.0091,-0.0258,-0.0025,0.0059,-0.0001,0.0046,-0.1047,-11.1381,-37.6683,
10.9060,0.0366,-0.0439,1.0223,-0.0091,-0.0258,-0.0025,0.0059,-0.0001,0.0046,-0.1047,-11.1381,-37.6683,
10.9080,0.0366,-0.0439,1.0223,-0.0091,-0.0258,-0.0025,-0.0011,-0.0022,0.0031,-0.1047,-11.1381,-37.6683,
10.9440,0.0366,-0.0439,1.0223,0.0051,-0.0039,0.0086,-0.0011,-0.0022,0.0031,-0.1047,-11.1381,-37.6683,
10.9460,0.0366,-0.0439,1.0223,0.0051,-0.0039,0.0086,-0.0023,-0.0056,0.0015,-0.1047,-11.1381,-37.6683,
10.9470,0.0377,-0.0465,1.0343,0.0051,-0.0039,0.0086,-0.0023,-0.0056,0.0015,-0.1047,-11.1381,-37.6683,
10.9470,0.0376,-0.0450,1.0184,0.0051,-0.0039,0.0086,-0.0023,-0.0056,0.0015,-0.1047,-11.1381,-37.6683,
10.9510,0.0376,-0.0450,1.0184,0.0051,-0.0039,0.0086,-0.0023,-0.0056,0.0015,-0.0314,-11.1353,-37.6784,
10.9730,0.0348,-0.0452,1.0152,0.0051,-0.0039,0.0086,-0.0023,-0.0056,0.0015,-0.0314,-11.1353,-37.6784,
11.0170,0.0348,-0.0452,1.0152,0.0051,-0.0039,0.0086,-0.0149,0.0280,0.0037,-0.0314,-11.1353,-37.6784,
11.0180,0.0369,-0.0521,1.0224,0.0051,-0.0039,0.0086,-0.0149,0.0280,0.0037,-0.0314,-11.1353,-37.6784,
11.0190,0.0369,-0.0543,1.0593,0.0051,-0.0039,0.0086,-0.0149,0.0280,0.0037,-0.0314,-11.1353,-37.6784,
11.0190,0.0369,-0.0543,1.0593,0.0051,-0.0039,0.0086,-0.0149,0.0280,0.0037,-0.0699,-11.1766,-37.6951,
11.0260,0.0369,-0.0543,1.0593,0.0199,0.0099,-0.0037,-0.0149,0.0280,0.0037,-0.0699,-11.1766,-37.6951,
11.0260,0.0359,-0.0513,1.0069,0.0199,0.0099,-0.0037,-0.0149,0.0280,0.0037,-0.0699,-11.1766,-37.6951,
11.0400,0.0359,-0.0513,1.0069,0.0199,0.0099,-0.0037,0.0233,-0.0157,0.0031,-0.0699,-11.1766,-37.6951,
11.0800,0.0359,-0.0513,1.0069,-0.0055,-0.0509,0.0390,0.0233,-0.0157,0.0031,-0.0699,-11.1766,-37.6951,
11.0810,0.0315,-0.0498,1.0217,-0.0055,-0.0509,0.0390,0.0233,-0.0157,0.0031,-0.0699,-11.1766,-37.6951,
11.0810,0.0380,-0.0507,1.0422,-0.0055,-0.0509,0.0390,0.0233,-0.0157,0.0031,-0.0699,-11.1766,-37.6951,
11.0820,0.0397,-0.0470,1.0139,-0.0055,-0.0509,0.0390,0.0233,-0.0157,0.0031,-0.0699,-11.1766,-37.6951,
11.0820,0.0397,-0.0470,1.0139,-0.0055,-0.0509,0.0390,0.0019,-0.0285,0.0058,-0.0699,-11.1766,-37.6951,
11.0830,0.0397,-0.0470,1.0139,-0.0055,-0.0509,0.0390,0.0019,-0.0285,0.0058,-0.1412,-11.1512,-37.7218,
11.1050,0.0365,-0.0388,1.0170,-0.0055,-0.0509,0.0390,0.0019,-0.0285,0.0058,-0.1412,-11.1512,-37.7218,
11.1060,0.0365,-0.0388,1.0170,-0.0055,-0.0509,0.0390,0.0267,-0.0019,0.0061,-0.1412,-11.1512,-37.7218,
11.1500,0.0403,-0.0388,1.0299,-0.0055,-0.0509,0.0390,0.0267,-0.0019,0.0061,-0.1412,-11.1512,-37.7218,
11.1510,0.0403,-0.0388,1.0299,-0.0055,-0.0509,0.0390,-0.0127,-0.0062,0.0070,-0.1412,-11.1512,-37.7218,
11.1520,0.0427,-0.0453,1.0302,-0.0055,-0.0509,0.0390,-0.0127,-0.0062,0.0070,-0.1412,-11.1512,-37.7218,
11.1520,0.0427,-0.0453,1.0302,-0.0055,-0.0509,0.0390,-0.0127,-0.0062,0.0070,-0.1908,-11.1514,-37.6593,
11.1580,0.0427,-0.0453,1.0302,-0.0066,-0.0274,-0.0204,-0.0127,-0.0062,0.0070,-0.1908,-11.1514,-37.6593,
11.1720,0.0352,-0.0498,1.0261,-0.0066,-0.0274,-0.0204,-0.0127,-0.0062,0.0070,-0.1908,-11.1514,-37.6593,
11.2190,0.0330,-0.0518,1.0250,-0.0066,-0.0274,-0.0204,-0.0127,-0.0062,0.0070,-0.1908,-11.1514,-37.6593,
