
time,gFx,gFy,gFz,ax,ay,az,wx,wy,wz,Bx,By,Bz,
0.0390,-0.1218,-0.0372,1.0727,0.0000,0.0000,0.0000,0.0000,0.0000,0.0000,0.0000,0.0000,0.0000,
0.0390,-0.1237,-0.0356,1.0571,0.0000,0.0000,0.0000,0.0000,0.0000,0.0000,0.0000,0.0000,0.0000,
0.0390,-0.1237,-0.0356,1.0571,0.0000,0.0000,0.0000,0.0045,0.0765,-0.0236,0.0000,0.0000,0.0000,
0.0800,-0.1237,-0.0356,1.0571,0.0000,0.0000,0.0000,0.1316,-0.0518,-0.0049,0.0000,0.0000,0.0000,
0.0810,-0.1142,-0.0359,1.0268,0.0000,0.0000,0.0000,0.1316,-0.0518,-0.0049,0.0000,0.0000,0.0000,
0.0820,-0.1113,-0.0305,1.0052,0.0000,0.0000,0.0000,0.1316,-0.0518,-0.0049,0.0000,0.0000,0.0000,
0.1010,-0.1148,-0.0242,1.0034,0.0000,0.0000,0.0000,0.1316,-0.0518,-0.0049,0.0000,0.0000,0.0000,
0.1460,-0.1148,-0.0242,1.0034,0.0000,0.0000,0.0000,0.0748,0.1013,-0.0211,0.0000,0.0000,0.0000,
0.1470,-0.1191,-0.0200,1.0152,0.0000,0.0000,0.0000,0.0748,0.1013,-0.0211,0.0000,0.0000,0.0000,
0.1470,-0.1163,-0.0228,1.0278,0.0000,0.0000,0.0000,0.0748,0.1013,-0.0211,0.0000,0.0000,0.0000,
0.1480,-0.1163,-0.0228,1.0278,0.0000,0.0000,0.0000,0.0748,0.1013,-0.0211,25.7676,-2.5787,-32.3082,
0.1520,-0.1102,-0.0276,1.0333,0.0000,0.0000,0.0000,0.0748,0.1013,-0.0211,25.7676,-2.5787,-32.3082,
0.1530,-0.1102,-0.0276,1.0333,0.0000,0.0000,0.0000,0.0180,0.0652,-0.0196,25.7676,-2.5787,-32.3082,
0.1530,-0.1102,-0.0276,1.0333,0.0000,0.0000,0.0000,0.0180,0.0652,-0.0196,25.7676,-2.5787,-32.3082,
0.2120,-0.1107,-0.0298,1.0328,0.0000,0.0000,0.0000,0.0180,0.0652,-0.0196,25.7676,-2.5787,-32.3082,
0.2130,-0.1107,-0.0298,1.0328,0.0000,0.0000,0.0000,0.0549,-0.1147,-0.0239,25.7676,-2.5787,-32.3082,
0.2140,-0.1147,-0.0307,1.0299,0.0000,0.0000,0.0000,0.0549,-0.1147,-0.0239,25.7676,-2.5787,-32.3082,
0.2150,-0.1143,-0.0293,1.0293,0.0000,0.0000,0.0000,0.0549,-0.1147,-0.0239,25.7676,-2.5787,-32.3082,
0.2150,-0.1143,-0.0293,1.0293,0.0000,0.0000,0.0000,0.0549,-0.1147,-0.0239,25.8839,-2.9841,-32.9343,
0.2310,-0.1143,-0.0293,1.0293,0.0000,0.0000,0.0000,0.1163,-0.0646,-0.0257,25.8839,-2.9841,-32.9343,
0.2320,-0.1136,-0.0289,1.0323,0.0000,0.0000,0.0000,0.1163,-0.0646,-0.0257,25.8839,-2.9841,-32.9343,
0.2320,-0.1136,-0.0289,1.0323,-0.0327,0.0199,-0.0209,0.1163,-0.0646,-0.0257,25.8839,-2.9841,-32.9343,
0.2790,-0.1136,-0.0289,1.0323,-0.0327,0.0199,-0.0209,0.1258,0.0835,-0.0343,25.8839,-2.9841,-32.9343,
0.2800,-0.1159,-0.0253,1.0379,-0.0327,0.0199,-0.0209,0.1258,0.0835,-0.0343,25.8839,-2.9841,-32.9343,
0.2810,-0.1170,-0.0209,1.0403,-0.0327,0.0199,-0.0209,0.1258,0.0835,-0.0343,25.8839,-2.9841,-32.9343,
0.2820,-0.1170,-0.0209,1.0403,-0.0327,0.0199,-0.0209,0.1258,0.0835,-0.0343,25.8579,-3.1529,-32.8772,
0.2890,-0.1189,-0.0130,1.0395,-0.0327,0.0199,-0.0209,0.1258,0.0835,-0.0343,25.8579,-3.1529,-32.8772,
0.2900,-0.1189,-0.0130,1.0395,0.0216,-0.0849,0.0418,0.1258,0.0835,-0.0343,25.8579,-3.1529,-32.8772,
0.3460,-0.1189,-0.0130,1.0395,0.0216,-0.0849,0.0418,0.1221,-0.0102,-0.0514,25.8579,-3.1529,-32.8772,
0.3470,-0.1189,-0.0130,1.0395,0.0216,-0.0849,0.0418,0.1221,-0.0102,-0.0514,25.7714,-3.2397,-32.8257,
0.3480,-0.1209,-0.0029,1.0321,0.0216,-0.0849,0.0418,0.1221,-0.0102,-0.0514,25.7714,-3.2397,-32.8257,
0.3480,-0.1211,0.0019,1.0142,0.0216,-0.0849,0.0418,0.1221,-0.0102,-0.0514,25.7714,-3.2397,-32.8257,
0.3690,-0.1118,0.0000,0.9949,0.0216,-0.0849,0.0418,0.1221,-0.0102,-0.0514,25.7714,-3.2397,-32.8257,
0.3700,-0.1118,0.0000,0.9949,0.0216,-0.0849,0.0418,0.1566,-0.3260,-0.0602,25.7714,-3.2397,-32.8257,
0.3700,-0.1118,0.0000,0.9949,-0.1449,-0.0713,0.0736,0.1566,-0.3260,-0.0602,25.7714,-3.2397,-32.8257,
0.3710,-0.0982,-0.0051,0.9857,-0.1449,-0.0713,0.0736,0.1566,-0.3260,-0.0602,25.7714,-3.2397,-32.8257,
0.4130,-0.0886,-0.0080,0.9863,-0.1449,-0.0713,0.0736,0.1566,-0.3260,-0.0602,25.7714,-3.2397,-32.8257,
0.4140,-0.0886,-0.0080,0.9863,-0.1449,-0.0713,0.0736,0.1765,-0.2668,-0.0236,25.7714,-3.2397,-32.8257,
0.4140,-0.0854,-0.0077,0.9951,-0.1449,-0.0713,0.0736,0.1765,-0.2668,-0.0236,25.7714,-3.2397,-32.8257,
0.4150,-0.0854,-0.0077,0.9951,-0.1449,-0.0713,0.0736,0.1765,-0.2668,-0.0236,25.6170,-3.4081,-32.8672,
0.4260,-0.0854,-0.0077,0.9951,-0.1449,-0.0713,0.0736,0.1295,-0.0307,-0.0065,25.6170,-3.4081,-32.8672,
0.4260,-0.0854,-0.0077,0.9951,-0.1721,0.0182,-0.1723,0.1295,-0.0307,-0.0065,25.6170,-3.4081,-32.8672,
0.4270,-0.0873,-0.0049,1.0060,-0.1721,0.0182,-0.1723,0.1295,-0.0307,-0.0065,25.6170,-3.4081,-32.8672,
0.4800,-0.0894,0.0003,1.0178,-0.1721,0.0182,-0.1723,0.1295,-0.0307,-0.0065,25.6170,-3.4081,-32.8672,
0.4810,-0.0894,0.0003,1.0178,-0.1721,0.0182,-0.1723,0.0543,-0.0444,-0.0288,25.6170,-3.4081,-32.8672,
0.4820,-0.0927,0.0061,1.0284,-0.1721,0.0182,-0.1723,0.0543,-0.0444,-0.0288,25.6170,-3.4081,-32.8672,
0.4830,-0.0927,0.0061,1.0284,-0.1721,0.0182,-0.1723,0.0543,-0.0444,-0.0288,25.4188,-3.4859,-32.9133,
0.5010,-0.0928,0.0094,1.0324,-0.1721,0.0182,-0.1723,0.0543,-0.0444,-0.0288,25.4188,-3.4859,-32.9133,
0.5040,-0.0892,0.0098,1.0283,-0.1721,0.0182,-0.1723,0.0543,-0.0444,-0.0288,25.4188,-3.4859,-32.9133,
0.5040,-0.0892,0.0098,1.0283,-0.1721,0.0182,-0.1723,0.0412,-0.1892,-0.0410,25.4188,-3.4859,-32.9133,
0.5050,-0.0892,0.0098,1.0283,0.0222,-0.0590,-0.2766,0.0412,-0.1892,-0.0410,25.4188,-3.4859,-32.9133,
0.5470,-0.0817,0.0122,1.0207,0.0222,-0.0590,-0.2766,0.0412,-0.1892,-0.0410,25.4188,-3.4859,-32.9133,
0.5480,-0.0817,0.0122,1.0207,0.0222,-0.0590,-0.2766,0.0748,-0.2097,-0.0300,25.4188,-3.4859,-32.9133,
0.5490,-0.0817,0.0122,1.0207,0.0222,-0.0590,-0.2766,0.0748,-0.2097,-0.0300,25.3184,-3.5635,-32.9902,
0.5500,-0.0773,0.0149,1.0125,0.0222,-0.0590,-0.2766,0.0748,-0.2097,-0.0300,25.3184,-3.5635,-32.9902,
0.5620,-0.0773,0.0149,1.0125,-0.1239,0.0143,0.0268,0.0748,-0.2097,-0.0300,25.3184,-3.5635,-32.9902,
0.5630,-0.0713,0.0155,1.0070,-0.1239,0.0143,0.0268,0.0748,-0.2097,-0.0300,25.3184,-3.5635,-32.9902,
0.6130,-0.0713,0.0155,1.0070,-0.1239,0.0143,0.0268,0.0815,-0.1382,-0.0129,25.3184,-3.5635,-32.9902,
0.6180,-0.0671,0.0157,1.0075,-0.1239,0.0143,0.0268,0.0815,-0.1382,-0.0129,25.3184,-3.5635,-32.9902,
0.6190,-0.0671,0.0157,1.0075,-0.1239,0.0143,0.0268,0.0815,-0.1382,-0.0129,25.1316,-3.6666,-33.0802,
0.6200,-0.0633,0.0154,1.0098,-0.1239,0.0143,0.0268,0.0815,-0.1382,-0.0129,25.1316,-3.6666,-33.0802,
0.6340,-0.0612,0.0146,1.0112,-0.1239,0.0143,0.0268,0.0815,-0.1382,-0.0129,25.1316,-3.6666,-33.0802,
0.6350,-0.0612,0.0146,1.0112,-0.1239,0.0143,0.0268,0.0607,-0.1122,-0.0071,25.1316,-3.6666,-33.0802,
0.6410,-0.0612,0.0146,1.0112,-0.0685,0.0398,-0.0798,0.0607,-0.1122,-0.0071,25.1316,-3.6666,-33.0802,
0.6810,-0.0608,0.0159,1.0076,-0.0685,0.0398,-0.0798,0.0607,-0.1122,-0.0071,25.1316,-3.6666,-33.0802,
0.6820,-0.0608,0.0159,1.0076,-0.0685,0.0398,-0.0798,0.0464,-0.2060,-0.0114,25.1316,-3.6666,-33.0802,
0.6830,-0.0608,0.0159,1.0076,-0.0685,0.0398,-0.0798,0.0464,-0.2060,-0.0114,24.8437,-3.8492,-33.2044,
0.6830,-0.0575,0.0186,1.0052,-0.0685,0.0398,-0.0798,0.0464,-0.2060,-0.0114,24.8437,-3.8492,-33.2044,
0.6840,-0.0552,0.0195,1.0053,-0.0685,0.0398,-0.0798,0.0464,-0.2060,-0.0114,24.8437,-3.8492,-33.2044,
0.7000,-0.0552,0.0195,1.0053,-0.0416,0.0242,-0.1294,0.0464,-0.2060,-0.0114,24.8437,-3.8492,-33.2044,
0.7020,-0.0531,0.0190,1.0123,-0.0416,0.0242,-0.1294,0.0464,-0.2060,-0.0114,24.8437,-3.8492,-33.2044,
0.7020,-0.0531,0.0190,1.0123,-0.0416,0.0242,-0.1294,0.0421,-0.1520,-0.0053,24.8437,-3.8492,-33.2044,
0.7470,-0.0463,0.0185,1.0201,-0.0416,0.0242,-0.1294,0.0421,-0.1520,-0.0053,24.8437,-3.8492,-33.2044,
0.7490,-0.0463,0.0185,1.0201,-0.0416,0.0242,-0.1294,0.0339,-0.0249,0.0076,24.8437,-3.8492,-33.2044,
0.7490,-0.0463,0.0185,1.0201,-0.0416,0.0242,-0.1294,0.0339,-0.0249,0.0076,24.4218,-4.0382,-33.3466,
0.7500,-0.0440,0.0190,1.0245,-0.0416,0.0242,-0.1294,0.0339,-0.0249,0.0076,24.4218,-4.0382,-33.3466,
0.7700,-0.0415,0.0214,1.0311,-0.0416,0.0242,-0.1294,0.0339,-0.0249,0.0076,24.4218,-4.0382,-33.3466,
0.7780,-0.0451,0.0225,1.0294,-0.0416,0.0242,-0.1294,0.0339,-0.0249,0.0076,24.4218,-4.0382,-33.3466,
0.7790,-0.0451,0.0225,1.0294,-0.0110,0.0293,-0.1332,0.0339,-0.0249,0.0076,24.4218,-4.0382,-33.3466,
0.7800,-0.0451,0.0225,1.0294,-0.0110,0.0293,-0.1332,0.0351,-0.1190,-0.0083,24.4218,-4.0382,-33.3466,
0.8140,-0.0563,0.0210,1.0107,-0.0110,0.0293,-0.1332,0.0351,-0.1190,-0.0083,24.4218,-4.0382,-33.3466,
0.8150,-0.0563,0.0210,1.0107,-0.0110,0.0293,-0.1332,0.0351,-0.1190,-0.0083,24.0262,-4.1865,-33.4724,
0.8370,-0.0534,0.0202,1.0025,-0.0110,0.0293,-0.1332,0.0351,-0.1190,-0.0083,24.0262,-4.1865,-33.4724,
0.8380,-0.0534,0.0202,1.0025,-0.0110,0.0293,-0.1332,0.0461,-0.1126,-0.0089,24.0262,-4.1865,-33.4724,
0.8390,-0.0360,0.0203,1.0028,-0.0110,0.0293,-0.1332,0.0461,-0.1126,-0.0089,24.0262,-4.1865,-33.4724,
0.8400,-0.0360,0.0203,1.0028,0.0314,0.0126,0.0435,0.0461,-0.1126,-0.0089,24.0262,-4.1865,-33.4724,
0.8810,-0.0360,0.0203,1.0028,0.0314,0.0126,0.0435,0.0412,-0.0961,0.0073,24.0262,-4.1865,-33.4724,
0.8820,-0.0222,0.0210,0.9963,0.0314,0.0126,0.0435,0.0412,-0.0961,0.0073,24.0262,-4.1865,-33.4724,
0.8830,-0.0163,0.0246,0.9881,0.0314,0.0126,0.0435,0.0412,-0.0961,0.0073,24.0262,-4.1865,-33.4724,
0.8830,-0.0163,0.0246,0.9881,0.0314,0.0126,0.0435,0.0412,-0.0961,0.0073,23.6307,-4.3462,-33.6504,
0.9020,-0.0200,0.0272,0.9806,0.0314,0.0126,0.0435,0.0412,-0.0961,0.0073,23.6307,-4.3462,-33.6504,
0.9030,-0.0200,0.0272,0.9806,0.0314,0.0126,0.0435,0.0140,-0.1025,-0.0068,23.6307,-4.3462,-33.6504,
0.9140,-0.0200,0.0272,0.9806,-0.0715,0.0062,-0.1224,0.0140,-0.1025,-0.0068,23.6307,-4.3462,-33.6504,
0.9470,-0.0233,0.0258,0.9789,-0.0715,0.0062,-0.1224,0.0140,-0.1025,-0.0068,23.6307,-4.3462,-33.6504,
0.9480,-0.0233,0.0258,0.9789,-0.0715,0.0062,-0.1224,0.0140,-0.1025,-0.0068,23.2635,-4.4368,-33.8487,
0.9490,-0.0270,0.0258,0.9808,-0.0715,0.0062,-0.1224,0.0140,-0.1025,-0.0068,23.2635,-4.4368,-33.8487,
0.9490,-0.0270,0.0258,0.9808,-0.0715,0.0062,-0.1224,-0.0391,-0.0441,-0.0001,23.2635,-4.4368,-33.8487,
0.9680,-0.0296,0.0263,0.9813,-0.0715,0.0062,-0.1224,-0.0391,-0.0441,-0.0001,23.2635,-4.4368,-33.8487,
0.9720,-0.0304,0.0261,0.9804,-0.0715,0.0062,-0.1224,-0.0391,-0.0441,-0.0001,23.2635,-4.4368,-33.8487,
0.9730,-0.0304,0.0261,0.9804,0.1474,0.0762,-0.2960,-0.0391,-0.0441,-0.0001,23.2635,-4.4368,-33.8487,
0.9740,-0.0304,0.0261,0.9804,0.1474,0.0762,-0.2960,-0.0724,-0.0771,-0.0046,23.2635,-4.4368,-33.8487,
1.0140,-0.0324,0.0243,0.9819,0.1474,0.0762,-0.2960,-0.0724,-0.0771,-0.0046,23.2635,-4.4368,-33.8487,
1.0150,-0.0324,0.0243,0.9819,0.1474,0.0762,-0.2960,-0.0700,-0.0279,-0.0001,23.2635,-4.4368,-33.8487,
1.0160,-0.0308,0.0176,0.9925,0.1474,0.0762,-0.2960,-0.0700,-0.0279,-0.0001,23.2635,-4.4368,-33.8487,
1.0170,-0.0308,0.0176,0.9925,0.1474,0.0762,-0.2960,-0.0700,-0.0279,-0.0001,22.9568,-4.5235,-34.0062,
1.0360,-0.0293,0.0125,1.0133,0.1474,0.0762,-0.2960,-0.0700,-0.0279,-0.0001,22.9568,-4.5235,-34.0062,
1.0500,-0.0293,0.0125,1.0133,0.1107,0.1283,-0.3168,-0.0700,-0.0279,-0.0001,22.9568,-4.5235,-34.0062,
1.0510,-0.0363,0.0098,1.0340,0.1107,0.1283,-0.3168,-0.0700,-0.0279,-0.0001,22.9568,-4.5235,-34.0062,
1.0810,-0.0456,0.0105,1.0432,0.1107,0.1283,-0.3168,-0.0700,-0.0279,-0.0001,22.9568,-4.5235,-34.0062,
1.0820,-0.0456,0.0105,1.0432,0.1107,0.1283,-0.3168,-0.0996,0.2567,0.0079,22.9568,-4.5235,-34.0062,
1.0830,-0.0456,0.0105,1.0432,0.1107,0.1283,-0.3168,-0.0996,0.2567,0.0079,22.6524,-4.5494,-34.0955,
1.1030,-0.0454,0.0103,1.0432,0.1107,0.1283,-0.3168,-0.0996,0.2567,0.0079,22.6524,-4.5494,-34.0955,
1.1040,-0.0454,0.0103,1.0432,0.1107,0.1283,-0.3168,-0.1485,0.2023,-0.0013,22.6524,-4.5494,-34.0955,
1.1100,-0.0454,0.0103,1.0432,0.1829,0.1233,-0.1019,-0.1485,0.2023,-0.0013,22.6524,-4.5494,-34.0955,
1.1110,-0.0425,0.0116,1.0416,0.1829,0.1233,-0.1019,-0.1485,0.2023,-0.0013,22.6524,-4.5494,-34.0955,
1.1470,-0.0425,0.0094,1.0366,0.1829,0.1233,-0.1019,-0.1485,0.2023,-0.0013,22.6524,-4.5494,-34.0955,
1.1480,-0.0425,0.0094,1.0366,0.1829,0.1233,-0.1019,-0.1277,0.0612,-0.0089,22.6524,-4.5494,-34.0955,
1.1490,-0.0425,0.0094,1.0366,0.1829,0.1233,-0.1019,-0.1277,0.0612,-0.0089,22.5356,-4.4676,-34.1331,
1.1690,-0.0410,0.0047,1.0285,0.1829,0.1233,-0.1019,-0.1277,0.0612,-0.0089,22.5356,-4.4676,-34.1331,
1.1700,-0.0404,-0.0006,1.0196,0.1829,0.1233,-0.1019,-0.1277,0.0612,-0.0089,22.5356,-4.4676,-34.1331,
1.1710,-0.0404,-0.0006,1.0196,0.1829,0.1233,-0.1019,-0.0578,0.0771,0.0067,22.5356,-4.4676,-34.1331,
1.1870,-0.0404,-0.0006,1.0196,0.0987,0.0949,0.2710,-0.0578,0.0771,0.0067,22.5356,-4.4676,-34.1331,
1.1880,-0.0425,-0.0055,1.0139,0.0987,0.0949,0.2710,-0.0578,0.0771,0.0067,22.5356,-4.4676,-34.1331,
1.2140,-0.0495,-0.0073,1.0155,0.0987,0.0949,0.2710,-0.0578,0.0771,0.0067,22.5356,-4.4676,-34.1331,
1.2150,-0.0495,-0.0073,1.0155,0.0987,0.0949,0.2710,-0.0584,0.1608,0.0180,22.5356,-4.4676,-34.1331,
1.2160,-0.0495,-0.0073,1.0155,0.0987,0.0949,0.2710,-0.0584,0.1608,0.0180,22.5764,-4.3768,-34.1003,
1.2360,-0.0588,-0.0063,1.0232,0.0987,0.0949,0.2710,-0.0584,0.1608,0.0180,22.5764,-4.3768,-34.1003,
1.2460,-0.0663,-0.0057,1.0301,0.0987,0.0949,0.2710,-0.0584,0.1608,0.0180,22.5764,-4.3768,-34.1003,
1.2470,-0.0663,-0.0057,1.0301,0.0987,0.0949,0.2710,-0.1109,0.1413,0.0091,22.5764,-4.3768,-34.1003,
1.2470,-0.0663,-0.0057,1.0301,0.2021,0.0754,0.1099,-0.1109,0.1413,0.0091,22.5764,-4.3768,-34.1003,
1.2800,-0.0685,-0.0049,1.0345,0.2021,0.0754,0.1099,-0.1109,0.1413,0.0091,22.5764,-4.3768,-34.1003,
1.2800,-0.0685,-0.0049,1.0345,0.2021,0.0754,0.1099,-0.1109,0.1413,0.0091,22.6065,-4.2677,-34.0925,
1.3030,-0.0683,-0.0034,1.0354,0.2021,0.0754,0.1099,-0.1109,0.1413,0.0091,22.6065,-4.2677,-34.0925,
1.3040,-0.0683,-0.0034,1.0354,0.2021,0.0754,0.1099,-0.1344,0.0667,0.0021,22.6065,-4.2677,-34.0925,
1.3260,-0.0691,-0.0053,1.0339,0.2021,0.0754,0.1099,-0.1344,0.0667,0.0021,22.6065,-4.2677,-34.0925,
1.3270,-0.0677,-0.0097,1.0272,0.2021,0.0754,0.1099,-0.1344,0.0667,0.0021,22.6065,-4.2677,-34.0925,
1.3280,-0.0677,-0.0097,1.0272,0.2021,0.0754,0.1099,-0.1134,0.0658,0.0015,22.6065,-4.2677,-34.0925,
1.3280,-0.0677,-0.0097,1.0272,0.0885,0.0588,0.0586,-0.1134,0.0658,0.0015,22.6065,-4.2677,-34.0925,
1.3480,-0.0676,-0.0140,1.0203,0.0885,0.0588,0.0586,-0.1134,0.0658,0.0015,22.6065,-4.2677,-34.0925,
1.3500,-0.0676,-0.0140,1.0203,0.0885,0.0588,0.0586,-0.1134,0.0658,0.0015,22.7503,-4.0752,-34.0754,
1.3710,-0.0682,-0.0177,1.0186,0.0885,0.0588,0.0586,-0.1134,0.0658,0.0015,22.7503,-4.0752,-34.0754,
1.3720,-0.0682,-0.0177,1.0186,0.0885,0.0588,0.0586,-0.0874,0.0817,0.0054,22.7503,-4.0752,-34.0754,
1.3830,-0.0682,-0.0177,1.0186,0.0192,0.1165,0.1637,-0.0874,0.0817,0.0054,22.7503,-4.0752,-34.0754,
1.3840,-0.0680,-0.0215,1.0168,0.0192,0.1165,0.1637,-0.0874,0.0817,0.0054,22.7503,-4.0752,-34.0754,
1.4150,-0.0680,-0.0215,1.0168,0.0192,0.1165,0.1637,-0.0874,0.0817,0.0054,22.9442,-3.8503,-34.0290,
1.4160,-0.0679,-0.0260,1.0195,0.0192,0.1165,0.1637,-0.0874,0.0817,0.0054,22.9442,-3.8503,-34.0290,
1.4170,-0.0679,-0.0260,1.0195,0.0192,0.1165,0.1637,-0.0782,0.0945,0.0064,22.9442,-3.8503,-34.0290,
1.4350,-0.0684,-0.0276,1.0268,0.0192,0.1165,0.1637,-0.0782,0.0945,0.0064,22.9442,-3.8503,-34.0290,
1.4600,-0.0684,-0.0276,1.0268,0.0192,0.1165,0.1637,-0.0880,0.1880,0.0094,22.9442,-3.8503,-34.0290,
1.4610,-0.0740,-0.0253,1.0464,0.0192,0.1165,0.1637,-0.0880,0.1880,0.0094,22.9442,-3.8503,-34.0290,
1.4620,-0.0740,-0.0253,1.0464,0.1235,0.0519,0.0294,-0.0880,0.1880,0.0094,22.9442,-3.8503,-34.0290,
1.4820,-0.0836,-0.0229,1.0475,0.1235,0.0519,0.0294,-0.0880,0.1880,0.0094,22.9442,-3.8503,-34.0290,
1.4830,-0.0836,-0.0229,1.0475,0.1235,0.0519,0.0294,-0.0581,0.0744,-0.0010,22.9442,-3.8503,-34.0290,
1.4840,-0.0917,-0.0217,1.0252,0.1235,0.0519,0.0294,-0.0581,0.0744,-0.0010,22.9442,-3.8503,-34.0290,
1.4850,-0.0917,-0.0217,1.0252,0.1235,0.0519,0.0294,-0.0581,0.0744,-0.0010,23.2833,-3.6160,-33.8869,
1.5020,-0.0897,-0.0231,1.0068,0.1235,0.0519,0.0294,-0.0581,0.0744,-0.0010,23.2833,-3.6160,-33.8869,
1.5200,-0.0897,-0.0231,1.0068,0.0620,-0.0024,0.1516,-0.0581,0.0744,-0.0010,23.2833,-3.6160,-33.8869,
1.5210,-0.0897,-0.0231,1.0068,0.0620,-0.0024,0.1516,-0.0486,-0.0701,-0.0080,23.2833,-3.6160,-33.8869,
1.5220,-0.0829,-0.0273,1.0058,0.0620,-0.0024,0.1516,-0.0486,-0.0701,-0.0080,23.2833,-3.6160,-33.8869,
1.5490,-0.0811,-0.0303,1.0185,0.0620,-0.0024,0.1516,-0.0486,-0.0701,-0.0080,23.2833,-3.6160,-33.8869,
1.5500,-0.0811,-0.0303,1.0185,0.0620,-0.0024,0.1516,-0.0486,-0.0701,-0.0080,23.6374,-3.3438,-33.8062,
1.5680,-0.0855,-0.0323,1.0328,0.0620,-0.0024,0.1516,-0.0486,-0.0701,-0.0080,23.6374,-3.3438,-33.8062,
1.5690,-0.0855,-0.0323,1.0328,0.0620,-0.0024,0.1516,-0.0764,0.1474,-0.0037,23.6374,-3.3438,-33.8062,
1.5970,-0.0903,-0.0351,1.0389,0.0620,-0.0024,0.1516,-0.0764,0.1474,-0.0037,23.6374,-3.3438,-33.8062,
1.5980,-0.0878,-0.0395,1.0421,0.0620,-0.0024,0.1516,-0.0764,0.1474,-0.0037,23.6374,-3.3438,-33.8062,
1.5990,-0.0878,-0.0395,1.0421,0.0620,-0.0024,0.1516,-0.0709,0.1599,0.0054,23.6374,-3.3438,-33.8062,
1.6000,-0.0878,-0.0395,1.0421,0.0108,0.0616,-0.0051,-0.0709,0.1599,0.0054,23.6374,-3.3438,-33.8062,
1.6140,-0.0878,-0.0395,1.0421,0.0108,0.0616,-0.0051,-0.0709,0.1599,0.0054,23.9529,-3.1126,-33.7293,
1.6350,-0.0862,-0.0408,1.0418,0.0108,0.0616,-0.0051,-0.0709,0.1599,0.0054,23.9529,-3.1126,-33.7293,
1.6560,-0.0862,-0.0408,1.0418,0.0108,0.0616,-0.0051,-0.0312,0.0548,-0.0019,23.9529,-3.1126,-33.7293,
1.6590,-0.0917,-0.0362,1.0357,0.0108,0.0616,-0.0051,-0.0312,0.0548,-0.0019,23.9529,-3.1126,-33.7293,
1.6590,-0.0947,-0.0327,1.0285,0.0108,0.0616,-0.0051,-0.0312,0.0548,-0.0019,23.9529,-3.1126,-33.7293,
1.6600,-0.0947,-0.0327,1.0285,0.0548,-0.0127,0.1284,-0.0312,0.0548,-0.0019,23.9529,-3.1126,-33.7293,
1.6810,-0.0980,-0.0322,1.0194,0.0548,-0.0127,0.1284,-0.0312,0.0548,-0.0019,23.9529,-3.1126,-33.7293,
1.6820,-0.0980,-0.0322,1.0194,0.0548,-0.0127,0.1284,-0.0312,0.0548,-0.0019,24.2549,-2.9008,-33.6285,
1.6820,-0.0980,-0.0322,1.0194,0.0548,-0.0127,0.1284,0.0039,-0.0069,-0.0117,24.2549,-2.9008,-33.6285,
1.7020,-0.0978,-0.0353,1.0144,0.0548,-0.0127,0.1284,0.0039,-0.0069,-0.0117,24.2549,-2.9008,-33.6285,
1.7340,-0.0960,-0.0372,1.0186,0.0548,-0.0127,0.1284,0.0039,-0.0069,-0.0117,24.2549,-2.9008,-33.6285,
1.7350,-0.0960,-0.0372,1.0186,0.0548,-0.0127,0.1284,-0.0077,0.0255,-0.0080,24.2549,-2.9008,-33.6285,
1.7350,-0.0960,-0.0372,1.0186,0.0213,-0.0404,0.1551,-0.0077,0.0255,-0.0080,24.2549,-2.9008,-33.6285,
1.7480,-0.0997,-0.0375,1.0224,0.0213,-0.0404,0.1551,-0.0077,0.0255,-0.0080,24.2549,-2.9008,-33.6285,
1.7490,-0.0997,-0.0375,1.0224,0.0213,-0.0404,0.1551,-0.0077,0.0255,-0.0080,24.4447,-2.7544,-33.5871,
1.7690,-0.1014,-0.0362,1.0261,0.0213,-0.0404,0.1551,-0.0077,0.0255,-0.0080,24.4447,-2.7544,-33.5871,
1.7700,-0.1014,-0.0362,1.0261,0.0213,-0.0404,0.1551,-0.0211,0.0502,-0.0046,24.4447,-2.7544,-33.5871,
1.7940,-0.1014,-0.0362,1.0261,-0.0228,-0.0132,-0.0219,-0.0211,0.0502,-0.0046,24.4447,-2.7544,-33.5871,
1.7950,-0.0985,-0.0353,1.0264,-0.0228,-0.0132,-0.0219,-0.0211,0.0502,-0.0046,24.4447,-2.7544,-33.5871,
1.7950,-0.0985,-0.0353,1.0264,-0.0228,-0.0132,-0.0219,-0.0031,0.0209,-0.0037,24.4447,-2.7544,-33.5871,
1.7960,-0.0983,-0.0393,1.0233,-0.0228,-0.0132,-0.0219,-0.0031,0.0209,-0.0037,24.4447,-2.7544,-33.5871,
1.8130,-0.1008,-0.0384,1.0219,-0.0228,-0.0132,-0.0219,-0.0031,0.0209,-0.0037,24.4447,-2.7544,-33.5871,
1.8140,-0.1008,-0.0384,1.0219,-0.0228,-0.0132,-0.0219,-0.0031,0.0209,-0.0037,24.7324,-2.5714,-33.4500,
1.8350,-0.1024,-0.0398,1.0221,-0.0228,-0.0132,-0.0219,-0.0031,0.0209,-0.0037,24.7324,-2.5714,-33.4500,
1.8360,-0.1024,-0.0398,1.0221,-0.0228,-0.0132,-0.0219,-0.0046,0.0484,-0.0056,24.7324,-2.5714,-33.4500,
1.8720,-0.1024,-0.0398,1.0221,-0.0228,-0.0132,-0.0219,-0.0174,0.0451,-0.0043,24.7324,-2.5714,-33.4500,
1.8730,-0.1024,-0.0398,1.0221,-0.0105,-0.0196,0.0486,-0.0174,0.0451,-0.0043,24.7324,-2.5714,-33.4500,
1.8730,-0.1009,-0.0410,1.0230,-0.0105,-0.0196,0.0486,-0.0174,0.0451,-0.0043,24.7324,-2.5714,-33.4500,
1.8740,-0.1025,-0.0397,1.0208,-0.0105,-0.0196,0.0486,-0.0174,0.0451,-0.0043,24.7324,-2.5714,-33.4500,
1.8820,-0.1025,-0.0397,1.0208,-0.0105,-0.0196,0.0486,-0.0174,0.0451,-0.0043,24.9213,-2.4450,-33.4227,
1.9010,-0.1042,-0.0380,1.0190,-0.0105,-0.0196,0.0486,-0.0174,0.0451,-0.0043,24.9213,-2.4450,-33.4227,
1.9280,-0.1035,-0.0373,1.0192,-0.0105,-0.0196,0.0486,-0.0174,0.0451,-0.0043,24.9213,-2.4450,-33.4227,
1.9290,-0.1035,-0.0373,1.0192,-0.0105,-0.0196,0.0486,-0.0190,0.0283,-0.0019,24.9213,-2.4450,-33.4227,
1.9310,-0.1035,-0.0373,1.0192,-0.0098,-0.0311,0.0180,-0.0190,0.0283,-0.0019,24.9213,-2.4450,-33.4227,
1.9310,-0.1029,-0.0371,1.0199,-0.0098,-0.0311,0.0180,-0.0190,0.0283,-0.0019,24.9213,-2.4450,-33.4227,
1.9470,-0.1029,-0.0371,1.0199,-0.0098,-0.0311,0.0180,-0.0190,0.0283,-0.0019,25.0587,-2.3585,-33.3482,
1.9710,-0.1041,-0.0393,1.0186,-0.0098,-0.0311,0.0180,-0.0190,0.0283,-0.0019,25.0587,-2.3585,-33.3482,
1.9720,-0.1060,-0.0399,1.0205,-0.0098,-0.0311,0.0180,-0.0190,0.0283,-0.0019,25.0587,-2.3585,-33.3482,
1.9730,-0.1060,-0.0399,1.0205,-0.0098,-0.0311,0.0180,-0.0174,0.0121,-0.0007,25.0587,-2.3585,-33.3482,
2.0070,-0.1060,-0.0399,1.0205,-0.0098,-0.0311,0.0180,-0.0065,0.0240,0.0024,25.0587,-2.3585,-33.3482,
2.0080,-0.1058,-0.0399,1.0200,-0.0098,-0.0311,0.0180,-0.0065,0.0240,0.0024,25.0587,-2.3585,-33.3482,
2.0080,-0.1058,-0.0399,1.0200,-0.0142,-0.0036,-0.0051,-0.0065,0.0240,0.0024,25.0587,-2.3585,-33.3482,
2.0130,-0.1057,-0.0400,1.0203,-0.0142,-0.0036,-0.0051,-0.0065,0.0240,0.0024,25.0587,-2.3585,-33.3482,
2.0140,-0.1057,-0.0400,1.0203,-0.0142,-0.0036,-0.0051,-0.0065,0.0240,0.0024,25.1374,-2.2358,-33.2864,
2.0350,-0.1062,-0.0403,1.0201,-0.0142,-0.0036,-0.0051,-0.0065,0.0240,0.0024,25.1374,-2.2358,-33.2864,
2.0360,-0.1062,-0.0403,1.0201,-0.0142,-0.0036,-0.0051,-0.0000,0.0163,0.0024,25.1374,-2.2358,-33.2864,
2.0660,-0.1062,-0.0403,1.0201,-0.0142,-0.0036,-0.0051,-0.0061,0.0145,0.0005,25.1374,-2.2358,-33.2864,
2.0670,-0.1058,-0.0408,1.0192,-0.0142,-0.0036,-0.0051,-0.0061,0.0145,0.0005,25.1374,-2.2358,-33.2864,
2.0680,-0.1055,-0.0404,1.0181,-0.0142,-0.0036,-0.0051,-0.0061,0.0145,0.0005,25.1374,-2.2358,-33.2864,
2.0680,-0.1055,-0.0404,1.0181,-0.0195,-0.0194,-0.0014,-0.0061,0.0145,0.0005,25.1374,-2.2358,-33.2864,
2.0810,-0.1055,-0.0404,1.0181,-0.0195,-0.0194,-0.0014,-0.0061,0.0145,0.0005,25.2342,-2.2184,-33.1792,
2.1020,-0.1084,-0.0416,1.0194,-0.0195,-0.0194,-0.0014,-0.0061,0.0145,0.0005,25.2342,-2.2184,-33.1792,
2.1440,-0.1084,-0.0416,1.0194,-0.0195,-0.0194,-0.0014,-0.0071,0.0283,0.0009,25.2342,-2.2184,-33.1792,
2.1450,-0.1054,-0.0448,1.0158,-0.0195,-0.0194,-0.0014,-0.0071,0.0283,0.0009,25.2342,-2.2184,-33.1792,
2.1460,-0.1018,-0.0442,1.0137,-0.0195,-0.0194,-0.0014,-0.0071,0.0283,0.0009,25.2342,-2.2184,-33.1792,
2.1460,-0.1035,-0.0386,1.0185,-0.0195,-0.0194,-0.0014,-0.0071,0.0283,0.0009,25.2342,-2.2184,-33.1792,
2.1470,-0.1035,-0.0386,1.0185,-0.0195,-0.0194,-0.0014,-0.0061,0.0307,0.0015,25.2342,-2.2184,-33.1792,
2.1490,-0.1035,-0.0386,1.0185,-0.0042,-0.0186,-0.0035,-0.0061,0.0307,0.0015,25.2342,-2.2184,-33.1792,
2.1490,-0.1035,-0.0386,1.0185,-0.0042,-0.0186,-0.0035,-0.0061,0.0307,0.0015,25.3213,-2.1745,-33.1477,
2.1710,-0.1064,-0.0359,1.0285,-0.0042,-0.0186,-0.0035,-0.0061,0.0307,0.0015,25.3213,-2.1745,-33.1477,
2.2020,-0.1109,-0.0360,1.0227,-0.0042,-0.0186,-0.0035,-0.0061,0.0307,0.0015,25.3213,-2.1745,-33.1477,
2.2040,-0.1134,-0.0365,1.0069,-0.0042,-0.0186,-0.0035,-0.0061,0.0307,0.0015,25.3213,-2.1745,-33.1477,
2.2050,-0.1134,-0.0365,1.0069,-0.0158,-0.0484,-0.0318,-0.0061,0.0307,0.0015,25.3213,-2.1745,-33.1477,
2.2060,-0.1134,-0.0365,1.0069,-0.0158,-0.0484,-0.0318,0.0152,-0.0182,-0.0013,25.3213,-2.1745,-33.1477,
2.2130,-0.1134,-0.0365,1.0069,-0.0158,-0.0484,-0.0318,0.0152,-0.0182,-0.0013,25.4057,-2.1793,-33.1065,
2.2350,-0.1071,-0.0395,1.0067,-0.0158,-0.0484,-0.0318,0.0152,-0.0182,-0.0013,25.4057,-2.1793,-33.1065,
2.2370,-0.1071,-0.0395,1.0067,-0.0158,-0.0484,-0.0318,0.0168,-0.0808,0.0027,25.4057,-2.1793,-33.1065,
2.2800,-0.1071,-0.0395,1.0067,-0.0158,-0.0484,-0.0318,-0.0202,0.0915,0.0018,25.4057,-2.1793,-33.1065,
2.2820,-0.1059,-0.0394,1.0170,-0.0158,-0.0484,-0.0318,-0.0202,0.0915,0.0018,25.4057,-2.1793,-33.1065,
2.2830,-0.1103,-0.0417,1.0346,-0.0158,-0.0484,-0.0318,-0.0202,0.0915,0.0018,25.4057,-2.1793,-33.1065,
2.2840,-0.1102,-0.0471,1.0468,-0.0158,-0.0484,-0.0318,-0.0202,0.0915,0.0018,25.4057,-2.1793,-33.1065,
2.2840,-0.1102,-0.0471,1.0468,-0.0158,-0.0484,-0.0318,-0.0202,0.0915,0.0018,25.5068,-2.0952,-33.0592,
2.2850,-0.1102,-0.0471,1.0468,-0.0202,0.0237,0.0038,-0.0202,0.0915,0.0018,25.5068,-2.0952,-33.0592,
2.3020,-0.1108,-0.0500,1.0486,-0.0202,0.0237,0.0038,-0.0202,0.0915,0.0018,25.5068,-2.0952,-33.0592,
2.3030,-0.1108,-0.0500,1.0486,-0.0202,0.0237,0.0038,-0.0168,0.1449,-0.0071,25.5068,-2.0952,-33.0592,
2.3400,-0.1107,-0.0474,1.0473,-0.0202,0.0237,0.0038,-0.0168,0.1449,-0.0071,25.5068,-2.0952,-33.0592,
2.3420,-0.1107,-0.0474,1.0473,-0.0202,0.0237,0.0038,0.0168,0.0991,-0.0025,25.5068,-2.0952,-33.0592,
2.3420,-0.1119,-0.0402,1.0404,-0.0202,0.0237,0.0038,0.0168,0.0991,-0.0025,25.5068,-2.0952,-33.0592,
2.3430,-0.1119,-0.0402,1.0404,0.0639,-0.0239,0.0425,0.0168,0.0991,-0.0025,25.5068,-2.0952,-33.0592,
2.3460,-0.1119,-0.0402,1.0404,0.0639,-0.0239,0.0425,0.0168,0.0991,-0.0025,25.5444,-2.0740,-33.0566,
2.3690,-0.1120,-0.0353,1.0277,0.0639,-0.0239,0.0425,0.0168,0.0991,-0.0025,25.5444,-2.0740,-33.0566,
2.4140,-0.1120,-0.0353,1.0277,0.0639,-0.0239,0.0425,0.0525,-0.0564,-0.0086,25.5444,-2.0740,-33.0566,
2.4150,-0.1081,-0.0329,1.0140,0.0639,-0.0239,0.0425,0.0525,-0.0564,-0.0086,25.5444,-2.0740,-33.0566,
2.4170,-0.1071,-0.0332,1.0057,0.0639,-0.0239,0.0425,0.0525,-0.0564,-0.0086,25.5444,-2.0740,-33.0566,
2.4180,-0.1071,-0.0332,1.0057,0.0639,-0.0239,0.0425,0.0525,-0.0564,-0.0086,25.6043,-2.0795,-33.0034,
2.4180,-0.1094,-0.0358,1.0041,0.0639,-0.0239,0.0425,0.0525,-0.0564,-0.0086,25.6043,-2.0795,-33.0034,
2.4190,-0.1094,-0.0358,1.0041,0.0639,-0.0239,0.0425,0.0589,-0.0689,-0.0178,25.6043,-2.0795,-33.0034,
2.4190,-0.1094,-0.0358,1.0041,-0.0081,-0.0973,0.2296,0.0589,-0.0689,-0.0178,25.6043,-2.0795,-33.0034,
2.4740,-0.1158,-0.0364,1.0109,-0.0081,-0.0973,0.2296,0.0589,-0.0689,-0.0178,25.6043,-2.0795,-33.0034,
2.4750,-0.1214,-0.0360,1.0156,-0.0081,-0.0973,0.2296,0.0589,-0.0689,-0.0178,25.6043,-2.0795,-33.0034,
2.4760,-0.1234,-0.0359,1.0177,-0.0081,-0.0973,0.2296,0.0589,-0.0689,-0.0178,25.6043,-2.0795,-33.0034,
2.4770,-0.1234,-0.0359,1.0177,0.0248,-0.0127,-0.0739,0.0589,-0.0689,-0.0178,25.6043,-2.0795,-33.0034,
2.4770,-0.1234,-0.0359,1.0177,0.0248,-0.0127,-0.0739,0.0531,0.0347,-0.0181,25.6043,-2.0795,-33.0034,
2.4800,-0.1234,-0.0359,1.0177,0.0248,-0.0127,-0.0739,0.0531,0.0347,-0.0181,25.6624,-2.1140,-32.9393,
2.5020,-0.1207,-0.0358,1.0169,0.0248,-0.0127,-0.0739,0.0531,0.0347,-0.0181,25.6624,-2.1140,-32.9393,
2.5030,-0.1207,-0.0358,1.0169,0.0248,-0.0127,-0.0739,0.0549,0.0203,-0.0144,25.6624,-2.1140,-32.9393,
2.5480,-0.1181,-0.0343,1.0214,0.0248,-0.0127,-0.0739,0.0549,0.0203,-0.0144,25.6624,-2.1140,-32.9393,
2.5480,-0.1163,-0.0322,1.0252,0.0248,-0.0127,-0.0739,0.0549,0.0203,-0.0144,25.6624,-2.1140,-32.9393,
2.5490,-0.1163,-0.0322,1.0252,0.0248,-0.0127,-0.0739,0.0672,0.0118,-0.0196,25.6624,-2.1140,-32.9393,
2.5500,-0.1163,-0.0322,1.0252,0.0248,-0.0127,-0.0739,0.0672,0.0118,-0.0196,25.6833,-2.1820,-32.9557,
2.5530,-0.1163,-0.0322,1.0252,-0.0607,-0.0686,-0.0700,0.0672,0.0118,-0.0196,25.6833,-2.1820,-32.9557,
2.5680,-0.1136,-0.0270,1.0257,-0.0607,-0.0686,-0.0700,0.0672,0.0118,-0.0196,25.6833,-2.1820,-32.9557,
2.6120,-0.1136,-0.0270,1.0257,-0.0607,-0.0686,-0.0700,0.0867,-0.0356,-0.0251,25.6833,-2.1820,-32.9557,
2.6130,-0.1136,-0.0270,1.0257,-0.0607,-0.0686,-0.0700,0.0843,-0.0371,-0.0187,25.6833,-2.1820,-32.9557,
2.6130,-0.1112,-0.0243,1.0211,-0.0607,-0.0686,-0.0700,0.0843,-0.0371,-0.0187,25.6833,-2.1820,-32.9557,
2.6140,-0.1074,-0.0231,1.0157,-0.0607,-0.0686,-0.0700,0.0843,-0.0371,-0.0187,25.6833,-2.1820,-32.9557,
2.6150,-0.1054,-0.0245,1.0152,-0.0607,-0.0686,-0.0700,0.0843,-0.0371,-0.0187,25.6833,-2.1820,-32.9557,
2.6150,-0.1054,-0.0245,1.0152,-0.0687,-0.0865,0.0080,0.0843,-0.0371,-0.0187,25.6833,-2.1820,-32.9557,
2.6160,-0.1054,-0.0245,1.0152,-0.0687,-0.0865,0.0080,0.0843,-0.0371,-0.0187,25.7176,-2.2189,-32.9311,
2.6350,-0.1079,-0.0239,1.0173,-0.0687,-0.0865,0.0080,0.0843,-0.0371,-0.0187,25.7176,-2.2189,-32.9311,
2.6810,-0.1079,-0.0239,1.0173,-0.0687,-0.0865,0.0080,0.0714,0.0032,-0.0184,25.7176,-2.2189,-32.9311,
2.6820,-0.1116,-0.0223,1.0202,-0.0687,-0.0865,0.0080,0.0714,0.0032,-0.0184,25.7176,-2.2189,-32.9311,
2.6840,-0.1116,-0.0223,1.0202,-0.0687,-0.0865,0.0080,0.0714,0.0032,-0.0184,25.7596,-2.3219,-32.8461,
2.6840,-0.1126,-0.0221,1.0235,-0.0687,-0.0865,0.0080,0.0714,0.0032,-0.0184,25.7596,-2.3219,-32.8461,
2.6900,-0.1127,-0.0207,1.0253,-0.0687,-0.0865,0.0080,0.0714,0.0032,-0.0184,25.7596,-2.3219,-32.8461,
2.6910,-0.1127,-0.0207,1.0253,-0.0687,-0.0865,0.0080,0.0812,-0.0313,-0.0239,25.7596,-2.3219,-32.8461,
2.6910,-0.1127,-0.0207,1.0253,0.0131,-0.0425,-0.0254,0.0812,-0.0313,-0.0239,25.7596,-2.3219,-32.8461,
2.7470,-0.1138,-0.0182,1.0274,0.0131,-0.0425,-0.0254,0.0812,-0.0313,-0.0239,25.7596,-2.3219,-32.8461,
2.7480,-0.1138,-0.0182,1.0274,0.0131,-0.0425,-0.0254,0.0937,-0.0603,-0.0282,25.7596,-2.3219,-32.8461,
2.7500,-0.1134,-0.0152,1.0297,0.0131,-0.0425,-0.0254,0.0937,-0.0603,-0.0282,25.7596,-2.3219,-32.8461,
2.7510,-0.1134,-0.0152,1.0297,0.0131,-0.0425,-0.0254,0.0937,-0.0603,-0.0282,25.7165,-2.4406,-32.8293,
2.7520,-0.1131,-0.0116,1.0288,0.0131,-0.0425,-0.0254,0.0937,-0.0603,-0.0282,25.7165,-2.4406,-32.8293,
2.7520,-0.1131,-0.0116,1.0288,-0.0509,-0.0784,-0.0060,0.0937,-0.0603,-0.0282,25.7165,-2.4406,-32.8293,
2.7690,-0.1131,-0.0116,1.0288,-0.0509,-0.0784,-0.0060,0.0965,-0.1074,-0.0300,25.7165,-2.4406,-32.8293,
2.7700,-0.1098,-0.0092,1.0284,-0.0509,-0.0784,-0.0060,0.0965,-0.1074,-0.0300,25.7165,-2.4406,-32.8293,
2.8140,-0.1098,-0.0092,1.0284,-0.0509,-0.0784,-0.0060,0.0965,-0.1074,-0.0300,25.5735,-2.6130,-32.8322,
2.8150,-0.1098,-0.0092,1.0284,-0.0509,-0.0784,-0.0060,0.1020,-0.1281,-0.0309,25.5735,-2.6130,-32.8322,
2.8170,-0.1044,-0.0077,1.0258,-0.0509,-0.0784,-0.0060,0.1020,-0.1281,-0.0309,25.5735,-2.6130,-32.8322,
2.8180,-0.0998,-0.0062,1.0202,-0.0509,-0.0784,-0.0060,0.1020,-0.1281,-0.0309,25.5735,-2.6130,-32.8322,
2.8270,-0.0998,-0.0062,1.0202,-0.1422,-0.0688,0.0508,0.1020,-0.1281,-0.0309,25.5735,-2.6130,-32.8322,
2.8280,-0.0987,-0.0045,1.0170,-0.1422,-0.0688,0.0508,0.1020,-0.1281,-0.0309,25.5735,-2.6130,-32.8322,
2.8810,-0.0987,-0.0045,1.0170,-0.1422,-0.0688,0.0508,0.0885,-0.1251,-0.0260,25.5735,-2.6130,-32.8322,
2.8820,-0.0987,-0.0045,1.0170,-0.1422,-0.0688,0.0508,0.0885,-0.1251,-0.0260,25.4787,-2.8042,-32.8731,
2.8850,-0.0967,-0.0081,1.0133,-0.1422,-0.0688,0.0508,0.0885,-0.1251,-0.0260,25.4787,-2.8042,-32.8731,
2.8850,-0.0886,-0.0095,1.0097,-0.1422,-0.0688,0.0508,0.0885,-0.1251,-0.0260,25.4787,-2.8042,-32.8731,
2.8860,-0.0886,-0.0095,1.0097,-0.1422,-0.0688,0.0508,0.0528,-0.0814,-0.0141,25.4787,-2.8042,-32.8731,
2.8870,-0.0839,-0.0072,1.0104,-0.1422,-0.0688,0.0508,0.0528,-0.0814,-0.0141,25.4787,-2.8042,-32.8731,
2.8880,-0.0839,-0.0072,1.0104,-0.1031,-0.0270,0.0003,0.0528,-0.0814,-0.0141,25.4787,-2.8042,-32.8731,
2.9470,-0.0839,-0.0072,1.0104,-0.1031,-0.0270,0.0003,0.0204,-0.1031,-0.0245,25.4787,-2.8042,-32.8731,
2.9490,-0.0844,-0.0017,1.0208,-0.1031,-0.0270,0.0003,0.0204,-0.1031,-0.0245,25.4787,-2.8042,-32.8731,
2.9500,-0.0899,0.0030,1.0249,-0.1031,-0.0270,0.0003,0.0204,-0.1031,-0.0245,25.4787,-2.8042,-32.8731,
2.9510,-0.0987,0.0057,1.0109,-0.1031,-0.0270,0.0003,0.0204,-0.1031,-0.0245,25.4787,-2.8042,-32.8731,
2.9520,-0.0987,0.0057,1.0109,-0.1031,-0.0270,0.0003,0.0204,-0.1031,-0.0245,25.3960,-2.9944,-32.9007,
2.9640,-0.0987,0.0057,1.0109,-0.1031,-0.0270,0.0003,0.0339,-0.1804,-0.0330,25.3960,-2.9944,-32.9007,
2.9650,-0.1008,0.0070,1.0017,-0.1031,-0.0270,0.0003,0.0339,-0.1804,-0.0330,25.3960,-2.9944,-32.9007,
2.9660,-0.1008,0.0070,1.0017,-0.0647,-0.0419,-0.1114,0.0339,-0.1804,-0.0330,25.3960,-2.9944,-32.9007,
3.0140,-0.0883,0.0060,1.0031,-0.0647,-0.0419,-0.1114,0.0339,-0.1804,-0.0330,25.3960,-2.9944,-32.9007,
3.0150,-0.0883,0.0060,1.0031,-0.0647,-0.0419,-0.1114,0.0669,-0.1758,-0.0144,25.3960,-2.9944,-32.9007,
3.0160,-0.0883,0.0060,1.0031,-0.0647,-0.0419,-0.1114,0.0669,-0.1758,-0.0144,25.2814,-3.1203,-33.0153,
3.0180,-0.0737,0.0048,1.0056,-0.0647,-0.0419,-0.1114,0.0669,-0.1758,-0.0144,25.2814,-3.1203,-33.0153,
3.0220,-0.0737,0.0048,1.0056,-0.1724,0.0166,-0.0664,0.0669,-0.1758,-0.0144,25.2814,-3.1203,-33.0153,
3.0230,-0.0624,0.0032,1.0059,-0.1724,0.0166,-0.0664,0.0669,-0.1758,-0.0144,25.2814,-3.1203,-33.0153,
3.0800,-0.0563,0.0022,1.0118,-0.1724,0.0166,-0.0664,0.0669,-0.1758,-0.0144,25.2814,-3.1203,-33.0153,
3.0810,-0.0563,0.0022,1.0118,-0.1724,0.0166,-0.0664,0.0736,-0.1122,0.0021,25.2814,-3.1203,-33.0153,
3.0820,-0.0563,0.0022,1.0118,-0.1724,0.0166,-0.0664,0.0183,-0.0325,-0.0013,25.2814,-3.1203,-33.0153,
3.0830,-0.0562,0.0021,1.0232,-0.1724,0.0166,-0.0664,0.0183,-0.0325,-0.0013,25.2814,-3.1203,-33.0153,
3.0830,-0.0602,0.0017,1.0376,-0.1724,0.0166,-0.0664,0.0183,-0.0325,-0.0013,25.2814,-3.1203,-33.0153,
3.0840,-0.0602,0.0017,1.0376,-0.1724,0.0166,-0.0664,0.0183,-0.0325,-0.0013,25.0452,-3.2415,-33.1210,
3.1000,-0.0602,0.0017,1.0376,-0.0543,0.0138,-0.1668,0.0183,-0.0325,-0.0013,25.0452,-3.2415,-33.1210,
3.1010,-0.0677,0.0027,1.0499,-0.0543,0.0138,-0.1668,0.0183,-0.0325,-0.0013,25.0452,-3.2415,-33.1210,
3.1470,-0.0722,0.0054,1.0465,-0.0543,0.0138,-0.1668,0.0183,-0.0325,-0.0013,25.0452,-3.2415,-33.1210,
3.1480,-0.0722,0.0054,1.0465,-0.0543,0.0138,-0.1668,-0.0153,-0.0518,-0.0126,25.0452,-3.2415,-33.1210,
3.1490,-0.0702,0.0068,1.0321,-0.0543,0.0138,-0.1668,-0.0153,-0.0518,-0.0126,25.0452,-3.2415,-33.1210,
3.1490,-0.0702,0.0068,1.0321,-0.0543,0.0138,-0.1668,-0.0153,-0.0518,-0.0126,24.7237,-3.3668,-33.2428,
3.1590,-0.0630,0.0053,1.0137,-0.0543,0.0138,-0.1668,-0.0153,-0.0518,-0.0126,24.7237,-3.3668,-33.2428,
3.1590,-0.0630,0.0053,1.0137,-0.0543,0.0138,-0.1668,0.0253,-0.1978,-0.0175,24.7237,-3.3668,-33.2428,
3.1600,-0.0630,0.0053,1.0137,0.0350,-0.0157,0.0491,0.0253,-0.1978,-0.0175,24.7237,-3.3668,-33.2428,
3.2150,-0.0630,0.0053,1.0137,0.0350,-0.0157,0.0491,0.0253,-0.1978,-0.0175,24.3676,-3.4872,-33.4684,
3.2160,-0.0552,0.0066,1.0024,0.0350,-0.0157,0.0491,0.0253,-0.1978,-0.0175,24.3676,-3.4872,-33.4684,
3.2180,-0.0508,0.0074,0.9966,0.0350,-0.0157,0.0491,0.0253,-0.1978,-0.0175,24.3676,-3.4872,-33.4684,
3.2190,-0.0508,0.0074,0.9966,0.0350,-0.0157,0.0491,0.0754,-0.1950,-0.0129,24.3676,-3.4872,-33.4684,
3.2350,-0.0503,0.0057,0.9971,0.0350,-0.0157,0.0491,0.0754,-0.1950,-0.0129,24.3676,-3.4872,-33.4684,
3.2360,-0.0503,0.0057,0.9971,-0.1479,-0.0316,0.0914,0.0754,-0.1950,-0.0129,24.3676,-3.4872,-33.4684,
3.2810,-0.0503,0.0057,0.9971,-0.1479,-0.0316,0.0914,0.0754,-0.1950,-0.0129,24.0116,-3.5859,-33.6283,
3.2830,-0.0503,0.0057,0.9971,-0.1479,-0.0316,0.0914,0.0693,-0.0909,-0.0046,24.0116,-3.5859,-33.6283,
3.2850,-0.0486,0.0057,1.0053,-0.1479,-0.0316,0.0914,0.0693,-0.0909,-0.0046,24.0116,-3.5859,-33.6283,
3.2850,-0.0472,0.0088,1.0129,-0.1479,-0.0316,0.0914,0.0693,-0.0909,-0.0046,24.0116,-3.5859,-33.6283,
3.2860,-0.0472,0.0088,1.0129,-0.1479,-0.0316,0.0914,0.0256,-0.0887,-0.0126,24.0116,-3.5859,-33.6283,
3.2870,-0.0458,0.0140,1.0195,-0.1479,-0.0316,0.0914,0.0256,-0.0887,-0.0126,24.0116,-3.5859,-33.6283,
3.2940,-0.0429,0.0171,1.0194,-0.1479,-0.0316,0.0914,0.0256,-0.0887,-0.0126,24.0116,-3.5859,-33.6283,
3.2960,-0.0429,0.0171,1.0194,-0.0394,-0.0334,-0.2209,0.0256,-0.0887,-0.0126,24.0116,-3.5859,-33.6283,
3.3460,-0.0429,0.0171,1.0194,-0.0394,-0.0334,-0.2209,0.0082,-0.1119,-0.0092,24.0116,-3.5859,-33.6283,
3.3480,-0.0382,0.0168,1.0163,-0.0394,-0.0334,-0.2209,0.0082,-0.1119,-0.0092,24.0116,-3.5859,-33.6283,
3.3490,-0.0342,0.0146,1.0073,-0.0394,-0.0334,-0.2209,0.0082,-0.1119,-0.0092,24.0116,-3.5859,-33.6283,
3.3500,-0.0342,0.0146,1.0073,-0.0394,-0.0334,-0.2209,0.0082,-0.1119,-0.0092,23.6693,-3.6657,-33.8251,
3.3700,-0.0280,0.0119,0.9948,-0.0394,-0.0334,-0.2209,0.0082,-0.1119,-0.0092,23.6693,-3.6657,-33.8251,
3.3710,-0.0280,0.0119,0.9948,-0.0394,-0.0334,-0.2209,0.0247,-0.1184,0.0012,23.6693,-3.6657,-33.8251,
3.3750,-0.0280,0.0119,0.9948,-0.0556,0.0075,-0.0548,0.0247,-0.1184,0.0012,23.6693,-3.6657,-33.8251,
3.4140,-0.0254,0.0108,0.9811,-0.0556,0.0075,-0.0548,0.0247,-0.1184,0.0012,23.6693,-3.6657,-33.8251,
3.4160,-0.0254,0.0108,0.9811,-0.0556,0.0075,-0.0548,0.0501,-0.1297,0.0042,23.6693,-3.6657,-33.8251,
3.4170,-0.0254,0.0108,0.9811,-0.0556,0.0075,-0.0548,0.0501,-0.1297,0.0042,23.2901,-3.7463,-33.9975,
3.4170,-0.0224,0.0133,0.9681,-0.0556,0.0075,-0.0548,0.0501,-0.1297,0.0042,23.2901,-3.7463,-33.9975,
3.4180,-0.0206,0.0144,0.9613,-0.0556,0.0075,-0.0548,0.0501,-0.1297,0.0042,23.2901,-3.7463,-33.9975,
3.4330,-0.0202,0.0124,0.9633,-0.0556,0.0075,-0.0548,0.0501,-0.1297,0.0042,23.2901,-3.7463,-33.9975,
3.4350,-0.0202,0.0124,0.9633,-0.0556,0.0075,-0.0548,0.0565,-0.0735,0.0057,23.2901,-3.7463,-33.9975,
3.4360,-0.0202,0.0124,0.9633,0.0077,-0.0138,-0.1620,0.0565,-0.0735,0.0057,23.2901,-3.7463,-33.9975,
3.4820,-0.0241,0.0065,0.9759,0.0077,-0.0138,-0.1620,0.0565,-0.0735,0.0057,23.2901,-3.7463,-33.9975,
3.4840,-0.0241,0.0065,0.9759,0.0077,-0.0138,-0.1620,-0.0358,0.1428,0.0045,23.2901,-3.7463,-33.9975,
3.4850,-0.0323,0.0071,1.0013,0.0077,-0.0138,-0.1620,-0.0358,0.1428,0.0045,23.2901,-3.7463,-33.9975,
3.4860,-0.0323,0.0071,1.0013,0.0077,-0.0138,-0.1620,-0.0358,0.1428,0.0045,22.8998,-3.8078,-34.1692,
3.5020,-0.0401,0.0157,1.0350,0.0077,-0.0138,-0.1620,-0.0358,0.1428,0.0045,22.8998,-3.8078,-34.1692,
3.5100,-0.0481,0.0210,1.0604,0.0077,-0.0138,-0.1620,-0.0358,0.1428,0.0045,22.8998,-3.8078,-34.1692,
3.5110,-0.0481,0.0210,1.0604,0.0077,-0.0138,-0.1620,-0.1848,0.2253,-0.0077,22.8998,-3.8078,-34.1692,
3.5120,-0.0481,0.0210,1.0604,0.2115,0.0406,-0.4623,-0.1848,0.2253,-0.0077,22.8998,-3.8078,-34.1692,
3.5480,-0.0481,0.0210,1.0604,0.2115,0.0406,-0.4623,-0.1848,0.2253,-0.0077,22.6460,-3.8027,-34.2805,
3.5500,-0.0500,0.0201,1.0703,0.2115,0.0406,-0.4623,-0.1848,0.2253,-0.0077,22.6460,-3.8027,-34.2805,
3.5690,-0.0414,0.0111,1.0585,0.2115,0.0406,-0.4623,-0.1848,0.2253,-0.0077,22.6460,-3.8027,-34.2805,
3.5700,-0.0364,0.0048,1.0293,0.2115,0.0406,-0.4623,-0.1848,0.2253,-0.0077,22.6460,-3.8027,-34.2805,
3.5710,-0.0364,0.0048,1.0293,0.2115,0.0406,-0.4623,-0.1641,0.0564,-0.0123,22.6460,-3.8027,-34.2805,
3.5710,-0.0364,0.0048,1.0293,0.1018,0.1029,-0.0153,-0.1641,0.0564,-0.0123,22.6460,-3.8027,-34.2805,
3.6150,-0.0331,0.0003,1.0031,0.1018,0.1029,-0.0153,-0.1641,0.0564,-0.0123,22.6460,-3.8027,-34.2805,
3.6160,-0.0331,0.0003,1.0031,0.1018,0.1029,-0.0153,-0.1641,0.0564,-0.0123,22.5008,-3.8011,-34.3369,
3.6180,-0.0331,0.0003,1.0031,0.1018,0.1029,-0.0153,-0.0113,-0.0915,-0.0010,22.5008,-3.8011,-34.3369,
3.6180,-0.0305,-0.0025,0.9893,0.1018,0.1029,-0.0153,-0.0113,-0.0915,-0.0010,22.5008,-3.8011,-34.3369,
3.6360,-0.0358,-0.0023,0.9682,0.1018,0.1029,-0.0153,-0.0113,-0.0915,-0.0010,22.5008,-3.8011,-34.3369,
3.6370,-0.0358,-0.0023,0.9682,0.1018,0.1029,-0.0153,0.0442,-0.0899,0.0064,22.5008,-3.8011,-34.3369,
3.6470,-0.0358,-0.0023,0.9682,-0.0417,0.0916,0.3585,0.0442,-0.0899,0.0064,22.5008,-3.8011,-34.3369,
3.6490,-0.0413,-0.0017,0.9637,-0.0417,0.0916,0.3585,0.0442,-0.0899,0.0064,22.5008,-3.8011,-34.3369,
3.6820,-0.0413,-0.0017,0.9637,-0.0417,0.0916,0.3585,0.0442,-0.0899,0.0064,22.4174,-3.7876,-34.4161,
3.6830,-0.0414,-0.0011,0.9908,-0.0417,0.0916,0.3585,0.0442,-0.0899,0.0064,22.4174,-3.7876,-34.4161,
3.6840,-0.0414,-0.0011,0.9908,-0.0417,0.0916,0.3585,-0.0975,0.1345,0.0088,22.4174,-3.7876,-34.4161,
3.7030,-0.0501,-0.0005,1.0382,-0.0417,0.0916,0.3585,-0.0975,0.1345,0.0088,22.4174,-3.7876,-34.4161,
3.7050,-0.0594,-0.0014,1.0796,-0.0417,0.0916,0.3585,-0.0975,0.1345,0.0088,22.4174,-3.7876,-34.4161,
3.7060,-0.0594,-0.0014,1.0796,-0.0417,0.0916,0.3585,-0.2621,0.3444,0.0128,22.4174,-3.7876,-34.4161,
3.7070,-0.0594,-0.0014,1.0796,0.2094,0.0733,-0.2941,-0.2621,0.3444,0.0128,22.4174,-3.7876,-34.4161,
3.7480,-0.0602,-0.0056,1.0902,0.2094,0.0733,-0.2941,-0.2621,0.3444,0.0128,22.4174,-3.7876,-34.4161,
3.7500,-0.0602,-0.0056,1.0902,0.2094,0.0733,-0.2941,-0.1732,0.0945,0.0106,22.4174,-3.7876,-34.4161,
3.7510,-0.0548,-0.0140,1.0741,0.2094,0.0733,-0.2941,-0.1732,0.0945,0.0106,22.4174,-3.7876,-34.4161,
3.7520,-0.0548,-0.0140,1.0741,0.2094,0.0733,-0.2941,-0.1732,0.0945,0.0106,22.4965,-3.6547,-34.3408,
3.7690,-0.0501,-0.0202,1.0472,0.2094,0.0733,-0.2941,-0.1732,0.0945,0.0106,22.4965,-3.6547,-34.3408,
3.7830,-0.0501,-0.0202,1.0472,0.0778,0.1324,0.1162,-0.1732,0.0945,0.0106,22.4965,-3.6547,-34.3408,
3.7850,-0.0501,-0.0202,1.0472,0.0778,0.1324,0.1162,0.0048,-0.0338,0.0091,22.4965,-3.6547,-34.3408,
3.7850,-0.0496,-0.0248,1.0222,0.0778,0.1324,0.1162,0.0048,-0.0338,0.0091,22.4965,-3.6547,-34.3408,
3.8140,-0.0533,-0.0265,1.0070,0.0778,0.1324,0.1162,0.0048,-0.0338,0.0091,22.4965,-3.6547,-34.3408,
3.8160,-0.0533,-0.0265,1.0070,0.0778,0.1324,0.1162,0.0048,-0.0338,0.0091,22.5763,-3.5128,-34.2906,
3.8350,-0.0619,-0.0227,0.9998,0.0778,0.1324,0.1162,0.0048,-0.0338,0.0091,22.5763,-3.5128,-34.2906,
3.8370,-0.0619,-0.0227,0.9998,0.0778,0.1324,0.1162,0.0284,0.1187,0.0067,22.5763,-3.5128,-34.2906,
3.8430,-0.0619,-0.0227,0.9998,0.0917,-0.0065,0.4399,0.0284,0.1187,0.0067,22.5763,-3.5128,-34.2906,
3.8450,-0.0683,-0.0198,1.0028,0.0917,-0.0065,0.4399,0.0284,0.1187,0.0067,22.5763,-3.5128,-34.2906,
3.8810,-0.0706,-0.0173,1.0147,0.0917,-0.0065,0.4399,0.0284,0.1187,0.0067,22.5763,-3.5128,-34.2906,
3.8830,-0.0695,-0.0162,1.0297,0.0917,-0.0065,0.4399,0.0284,0.1187,0.0067,22.5763,-3.5128,-34.2906,
3.8830,-0.0695,-0.0162,1.0297,0.0917,-0.0065,0.4399,-0.0840,0.1400,0.0018,22.5763,-3.5128,-34.2906,
3.8840,-0.0695,-0.0162,1.0297,0.0917,-0.0065,0.4399,-0.0840,0.1400,0.0018,22.8027,-3.3537,-34.2086,
3.9030,-0.0721,-0.0165,1.0390,0.0917,-0.0065,0.4399,-0.0840,0.1400,0.0018,22.8027,-3.3537,-34.2086,
3.9040,-0.0721,-0.0165,1.0390,0.0917,-0.0065,0.4399,-0.1424,0.0619,0.0009,22.8027,-3.3537,-34.2086,
3.9200,-0.0721,-0.0165,1.0390,0.0791,-0.0029,-0.1218,-0.1424,0.0619,0.0009,22.8027,-3.3537,-34.2086,
3.9470,-0.0720,-0.0195,1.0403,0.0791,-0.0029,-0.1218,-0.1424,0.0619,0.0009,22.8027,-3.3537,-34.2086,
3.9490,-0.0720,-0.0195,1.0403,0.0791,-0.0029,-0.1218,-0.0819,-0.0090,-0.0025,22.8027,-3.3537,-34.2086,
3.9500,-0.0715,-0.0248,1.0348,0.0791,-0.0029,-0.1218,-0.0819,-0.0090,-0.0025,22.8027,-3.3537,-34.2086,
3.9500,-0.0715,-0.0248,1.0348,0.0791,-0.0029,-0.1218,-0.0819,-0.0090,-0.0025,23.0706,-3.1165,-34.1844,
3.9680,-0.0713,-0.0267,1.0269,0.0791,-0.0029,-0.1218,-0.0819,-0.0090,-0.0025,23.0706,-3.1165,-34.1844,
3.9780,-0.0713,-0.0267,1.0269,0.0791,-0.0029,-0.1218,-0.0174,0.0551,0.0024,23.0706,-3.1165,-34.1844,
3.9790,-0.0711,-0.0310,1.0179,0.0791,-0.0029,-0.1218,-0.0174,0.0551,0.0024,23.0706,-3.1165,-34.1844,
3.9800,-0.0711,-0.0310,1.0179,-0.0117,0.0787,0.1077,-0.0174,0.0551,0.0024,23.0706,-3.1165,-34.1844,
4.0150,-0.0711,-0.0310,1.0179,-0.0117,0.0787,0.1077,-0.0174,0.0551,0.0024,23.3129,-2.8775,-34.0712,
4.0160,-0.0727,-0.0317,1.0147,-0.0117,0.0787,0.1077,-0.0174,0.0551,0.0024,23.3129,-2.8775,-34.0712,
4.0350,-0.0727,-0.0317,1.0147,-0.0117,0.0787,0.1077,-0.0287,0.0878,0.0088,23.3129,-2.8775,-34.0712,
4.0360,-0.0726,-0.0323,1.0153,-0.0117,0.0787,0.1077,-0.0287,0.0878,0.0088,23.3129,-2.8775,-34.0712,
4.0570,-0.0726,-0.0323,1.0153,-0.0117,0.0787,0.1077,-0.0541,0.0927,0.0064,23.3129,-2.8775,-34.0712,
4.0580,-0.0726,-0.0323,1.0153,0.0382,0.0104,0.0893,-0.0541,0.0927,0.0064,23.3129,-2.8775,-34.0712,
4.0590,-0.0743,-0.0329,1.0208,0.0382,0.0104,0.0893,-0.0541,0.0927,0.0064,23.3129,-2.8775,-34.0712,
4.0600,-0.0761,-0.0331,1.0288,0.0382,0.0104,0.0893,-0.0541,0.0927,0.0064,23.3129,-2.8775,-34.0712,
4.0810,-0.0790,-0.0334,1.0315,0.0382,0.0104,0.0893,-0.0541,0.0927,0.0064,23.3129,-2.8775,-34.0712,
4.0820,-0.0790,-0.0334,1.0315,0.0382,0.0104,0.0893,-0.0541,0.0927,0.0064,23.5142,-2.7400,-34.0170,
4.1020,-0.0822,-0.0342,1.0290,0.0382,0.0104,0.0893,-0.0541,0.0927,0.0064,23.5142,-2.7400,-34.0170,
4.1030,-0.0822,-0.0342,1.0290,0.0382,0.0104,0.0893,-0.0446,0.0759,0.0021,23.5142,-2.7400,-34.0170,
4.1150,-0.0822,-0.0342,1.0290,0.0608,-0.0154,-0.0032,-0.0446,0.0759,0.0021,23.5142,-2.7400,-34.0170,
4.1170,-0.0829,-0.0355,1.0283,0.0608,-0.0154,-0.0032,-0.0446,0.0759,0.0021,23.5142,-2.7400,-34.0170,
4.1470,-0.0829,-0.0355,1.0283,0.0608,-0.0154,-0.0032,-0.0349,0.0521,0.0009,23.5142,-2.7400,-34.0170,
4.1480,-0.0820,-0.0336,1.0264,0.0608,-0.0154,-0.0032,-0.0349,0.0521,0.0009,23.5142,-2.7400,-34.0170,
4.1490,-0.0820,-0.0336,1.0264,0.0608,-0.0154,-0.0032,-0.0349,0.0521,0.0009,23.7882,-2.5869,-33.8823,
4.1700,-0.0849,-0.0323,1.0258,0.0608,-0.0154,-0.0032,-0.0349,0.0521,0.0009,23.7882,-2.5869,-33.8823,
4.1930,-0.0849,-0.0323,1.0258,0.0217,-0.0147,0.0976,-0.0349,0.0521,0.0009,23.7882,-2.5869,-33.8823,
4.1950,-0.0848,-0.0342,1.0250,0.0217,-0.0147,0.0976,-0.0349,0.0521,0.0009,23.7882,-2.5869,-33.8823,
4.1950,-0.0848,-0.0342,1.0250,0.0217,-0.0147,0.0976,-0.0251,0.0570,0.0018,23.7882,-2.5869,-33.8823,
4.2140,-0.0848,-0.0342,1.0250,0.0217,-0.0147,0.0976,-0.0089,0.0264,-0.0001,23.7882,-2.5869,-33.8823,
4.2150,-0.0859,-0.0350,1.0230,0.0217,-0.0147,0.0976,-0.0089,0.0264,-0.0001,23.7882,-2.5869,-33.8823,
4.2150,-0.0888,-0.0339,1.0222,0.0217,-0.0147,0.0976,-0.0089,0.0264,-0.0001,23.7882,-2.5869,-33.8823,
4.2160,-0.0888,-0.0339,1.0222,0.0217,-0.0147,0.0976,-0.0089,0.0264,-0.0001,24.1009,-2.4040,-33.7829,
4.2350,-0.0870,-0.0356,1.0185,0.0217,-0.0147,0.0976,-0.0089,0.0264,-0.0001,24.1009,-2.4040,-33.7829,
4.2520,-0.0870,-0.0356,1.0185,0.0068,-0.0075,0.0513,-0.0089,0.0264,-0.0001,24.1009,-2.4040,-33.7829,
4.2530,-0.0867,-0.0391,1.0178,0.0068,-0.0075,0.0513,-0.0089,0.0264,-0.0001,24.1009,-2.4040,-33.7829,
4.2540,-0.0867,-0.0391,1.0178,0.0068,-0.0075,0.0513,0.0018,0.0304,0.0009,24.1009,-2.4040,-33.7829,
4.2810,-0.0867,-0.0391,1.0178,0.0068,-0.0075,0.0513,0.0018,0.0304,0.0009,24.2749,-2.3269,-33.7463,
4.2830,-0.0865,-0.0387,1.0247,0.0068,-0.0075,0.0513,0.0018,0.0304,0.0009,24.2749,-2.3269,-33.7463,
4.3020,-0.0881,-0.0395,1.0371,0.0068,-0.0075,0.0513,0.0018,0.0304,0.0009,24.2749,-2.3269,-33.7463,
4.3030,-0.0881,-0.0395,1.0371,0.0068,-0.0075,0.0513,-0.0019,0.0796,0.0064,24.2749,-2.3269,-33.7463,
4.3320,-0.0881,-0.0395,1.0371,0.0002,-0.0305,-0.0004,-0.0019,0.0796,0.0064,24.2749,-2.3269,-33.7463,
4.3340,-0.0881,-0.0395,1.0371,0.0002,-0.0305,-0.0004,0.0216,-0.0432,-0.0019,24.2749,-2.3269,-33.7463,
4.3340,-0.0933,-0.0361,1.0224,0.0002,-0.0305,-0.0004,0.0216,-0.0432,-0.0019,24.2749,-2.3269,-33.7463,
4.3350,-0.0950,-0.0326,1.0015,0.0002,-0.0305,-0.0004,0.0216,-0.0432,-0.0019,24.2749,-2.3269,-33.7463,
4.3480,-0.0950,-0.0326,1.0015,0.0002,-0.0305,-0.0004,0.0216,-0.0432,-0.0019,24.4978,-2.2480,-33.7207,
4.3700,-0.0950,-0.0326,1.0015,0.0002,-0.0305,-0.0004,-0.0156,-0.0374,-0.0080,24.4978,-2.2480,-33.7207,
4.3720,-0.0919,-0.0331,0.9935,0.0002,-0.0305,-0.0004,-0.0156,-0.0374,-0.0080,24.4978,-2.2480,-33.7207,
4.3720,-0.0889,-0.0360,1.0019,0.0002,-0.0305,-0.0004,-0.0156,-0.0374,-0.0080,24.4978,-2.2480,-33.7207,
4.3890,-0.0889,-0.0360,1.0019,-0.0263,-0.0248,0.0426,-0.0156,-0.0374,-0.0080,24.4978,-2.2480,-33.7207,
4.3900,-0.0912,-0.0372,1.0205,-0.0263,-0.0248,0.0426,-0.0156,-0.0374,-0.0080,24.4978,-2.2480,-33.7207,
4.4140,-0.0923,-0.0410,1.0351,-0.0263,-0.0248,0.0426,-0.0156,-0.0374,-0.0080,24.4978,-2.2480,-33.7207,
4.4150,-0.0923,-0.0410,1.0351,-0.0263,-0.0248,0.0426,-0.0156,-0.0374,-0.0080,24.5993,-2.1537,-33.6599,
4.4160,-0.0923,-0.0410,1.0351,-0.0263,-0.0248,0.0426,-0.0691,0.1287,0.0015,24.5993,-2.1537,-33.6599,
4.4350,-0.0905,-0.0420,1.0385,-0.0263,-0.0248,0.0426,-0.0691,0.1287,0.0015,24.5993,-2.1537,-33.6599,
4.4660,-0.0905,-0.0420,1.0385,-0.0263,-0.0248,0.0426,-0.0492,0.0683,0.0027,24.5993,-2.1537,-33.6599,
4.4670,-0.0900,-0.0420,1.0361,-0.0263,-0.0248,0.0426,-0.0492,0.0683,0.0027,24.5993,-2.1537,-33.6599,
4.4680,-0.0900,-0.0420,1.0361,0.0170,0.0300,-0.1364,-0.0492,0.0683,0.0027,24.5993,-2.1537,-33.6599,
4.4800,-0.0900,-0.0420,1.0361,0.0170,0.0300,-0.1364,-0.0492,0.0683,0.0027,24.7227,-2.0963,-33.5621,
4.4820,-0.0911,-0.0389,1.0296,0.0170,0.0300,-0.1364,-0.0492,0.0683,0.0027,24.7227,-2.0963,-33.5621,
4.5020,-0.0943,-0.0388,1.0238,0.0170,0.0300,-0.1364,-0.0492,0.0683,0.0027,24.7227,-2.0963,-33.5621,
4.5040,-0.0943,-0.0388,1.0238,0.0170,0.0300,-0.1364,-0.0107,0.0014,-0.0019,24.7227,-2.0963,-33.5621,
4.5250,-0.0943,-0.0388,1.0238,0.0120,-0.0271,0.1537,-0.0107,0.0014,-0.0019,24.7227,-2.0963,-33.5621,
4.5260,-0.0943,-0.0388,1.0238,0.0120,-0.0271,0.1537,0.0021,-0.0145,-0.0043,24.7227,-2.0963,-33.5621,
4.5270,-0.0954,-0.0373,1.0157,0.0120,-0.0271,0.1537,0.0021,-0.0145,-0.0043,24.7227,-2.0963,-33.5621,
4.5270,-0.0961,-0.0414,1.0107,0.0120,-0.0271,0.1537,0.0021,-0.0145,-0.0043,24.7227,-2.0963,-33.5621,
4.5470,-0.0961,-0.0414,1.0107,0.0120,-0.0271,0.1537,0.0021,-0.0145,-0.0043,24.8833,-2.0500,-33.5536,
4.5490,-0.0982,-0.0435,1.0130,0.0120,-0.0271,0.1537,0.0021,-0.0145,-0.0043,24.8833,-2.0500,-33.5536,
4.5680,-0.0987,-0.0437,1.0233,0.0120,-0.0271,0.1537,0.0021,-0.0145,-0.0043,24.8833,-2.0500,-33.5536,
4.5690,-0.0987,-0.0437,1.0233,0.0120,-0.0271,0.1537,-0.0193,0.0411,0.0005,24.8833,-2.0500,-33.5536,
4.6040,-0.0987,-0.0437,1.0233,-0.0031,0.0076,-0.0133,-0.0193,0.0411,0.0005,24.8833,-2.0500,-33.5536,
4.6060,-0.0987,-0.0437,1.0233,-0.0031,0.0076,-0.0133,-0.0178,0.0197,0.0015,24.8833,-2.0500,-33.5536,
4.6060,-0.0987,-0.0415,1.0304,-0.0031,0.0076,-0.0133,-0.0178,0.0197,0.0015,24.8833,-2.0500,-33.5536,
4.6070,-0.0999,-0.0433,1.0279,-0.0031,0.0076,-0.0133,-0.0178,0.0197,0.0015,24.8833,-2.0500,-33.5536,
4.6130,-0.0999,-0.0433,1.0279,-0.0031,0.0076,-0.0133,-0.0178,0.0197,0.0015,25.0551,-1.9897,-33.4282,
4.6350,-0.0989,-0.0439,1.0211,-0.0031,0.0076,-0.0133,-0.0178,0.0197,0.0015,25.0551,-1.9897,-33.4282,
4.6620,-0.0976,-0.0428,1.0141,-0.0031,0.0076,-0.0133,-0.0178,0.0197,0.0015,25.0551,-1.9897,-33.4282,
4.6640,-0.0976,-0.0428,1.0141,-0.0031,0.0076,-0.0133,0.0088,-0.0072,-0.0037,25.0551,-1.9897,-33.4282,
4.6640,-0.0975,-0.0426,1.0117,-0.0031,0.0076,-0.0133,0.0088,-0.0072,-0.0037,25.0551,-1.9897,-33.4282,
4.6650,-0.0975,-0.0426,1.0117,-0.0366,-0.0299,0.0306,0.0088,-0.0072,-0.0037,25.0551,-1.9897,-33.4282,
4.6810,-0.0975,-0.0426,1.0117,-0.0366,-0.0299,0.0306,0.0088,-0.0072,-0.0037,25.1551,-1.9358,-33.4085,
4.7030,-0.0977,-0.0452,1.0136,-0.0366,-0.0299,0.0306,0.0088,-0.0072,-0.0037,25.1551,-1.9358,-33.4085,
4.7040,-0.0977,-0.0452,1.0136,-0.0366,-0.0299,0.0306,0.0021,0.0240,-0.0025,25.1551,-1.9358,-33.4085,
4.7050,-0.0981,-0.0466,1.0186,-0.0366,-0.0299,0.0306,0.0021,0.0240,-0.0025,25.1551,-1.9358,-33.4085,
4.7400,-0.0981,-0.0466,1.0186,-0.0098,-0.0244,-0.0234,0.0021,0.0240,-0.0025,25.1551,-1.9358,-33.4085,
4.7410,-0.0981,-0.0466,1.0186,-0.0098,-0.0244,-0.0234,-0.0098,0.0316,0.0002,25.1551,-1.9358,-33.4085,
4.7420,-0.0972,-0.0453,1.0218,-0.0098,-0.0244,-0.0234,-0.0098,0.0316,0.0002,25.1551,-1.9358,-33.4085,
4.7480,-0.0972,-0.0453,1.0218,-0.0098,-0.0244,-0.0234,-0.0098,0.0316,0.0002,25.2190,-1.8628,-33.3503,
4.7490,-0.0991,-0.0437,1.0218,-0.0098,-0.0244,-0.0234,-0.0098,0.0316,0.0002,25.2190,-1.8628,-33.3503,
4.7690,-0.0993,-0.0436,1.0223,-0.0098,-0.0244,-0.0234,-0.0098,0.0316,0.0002,25.2190,-1.8628,-33.3503,
4.7710,-0.0993,-0.0436,1.0223,-0.0098,-0.0244,-0.0234,-0.0113,0.0133,0.0005,25.2190,-1.8628,-33.3503,
4.8000,-0.0993,-0.0436,1.0223,-0.0018,-0.0352,-0.0087,-0.0113,0.0133,0.0005,25.2190,-1.8628,-33.3503,
4.8020,-0.0993,-0.0436,1.0223,-0.0018,-0.0352,-0.0087,-0.0089,0.0020,-0.0001,25.2190,-1.8628,-33.3503,
4.8020,-0.1000,-0.0424,1.0197,-0.0018,-0.0352,-0.0087,-0.0089,0.0020,-0.0001,25.2190,-1.8628,-33.3503,
4.8030,-0.1005,-0.0426,1.0177,-0.0018,-0.0352,-0.0087,-0.0089,0.0020,-0.0001,25.2190,-1.8628,-33.3503,
4.8130,-0.1005,-0.0426,1.0177,-0.0018,-0.0352,-0.0087,-0.0089,0.0020,-0.0001,25.2594,-1.7818,-33.3182,
4.8350,-0.1004,-0.0430,1.0177,-0.0018,-0.0352,-0.0087,-0.0089,0.0020,-0.0001,25.2594,-1.7818,-33.3182,
4.8760,-0.1015,-0.0431,1.0196,-0.0018,-0.0352,-0.0087,-0.0089,0.0020,-0.0001,25.2594,-1.7818,-33.3182,
4.8780,-0.1015,-0.0431,1.0196,-0.0018,-0.0352,-0.0087,-0.0010,0.0188,0.0009,25.2594,-1.7818,-33.3182,
4.8780,-0.1015,-0.0431,1.0196,-0.0018,-0.0352,-0.0087,0.0018,0.0350,0.0002,25.2594,-1.7818,-33.3182,
4.8790,-0.1011,-0.0444,1.0221,-0.0018,-0.0352,-0.0087,0.0018,0.0350,0.0002,25.2594,-1.7818,-33.3182,
4.8790,-0.1016,-0.0452,1.0257,-0.0018,-0.0352,-0.0087,0.0018,0.0350,0.0002,25.2594,-1.7818,-33.3182,
4.8800,-0.1016,-0.0452,1.0257,-0.0048,-0.0098,0.0085,0.0018,0.0350,0.0002,25.2594,-1.7818,-33.3182,
4.8800,-0.1016,-0.0452,1.0257,-0.0048,-0.0098,0.0085,0.0018,0.0350,0.0002,25.2850,-1.7394,-33.2504,
4.9030,-0.1022,-0.0454,1.0308,-0.0048,-0.0098,0.0085,0.0018,0.0350,0.0002,25.2850,-1.7394,-33.2504,
4.9360,-0.1022,-0.0454,1.0308,0.0316,-0.0164,0.0144,0.0018,0.0350,0.0002,25.2850,-1.7394,-33.2504,
4.9380,-0.1022,-0.0454,1.0308,0.0316,-0.0164,0.0144,-0.0010,0.0738,-0.0028,25.2850,-1.7394,-33.2504,
4.9390,-0.1064,-0.0448,1.0395,0.0316,-0.0164,0.0144,-0.0010,0.0738,-0.0028,25.2850,-1.7394,-33.2504,
4.9390,-0.1084,-0.0450,1.0442,0.0316,-0.0164,0.0144,-0.0010,0.0738,-0.0028,25.2850,-1.7394,-33.2504,
4.9470,-0.1084,-0.0450,1.0442,0.0316,-0.0164,0.0144,-0.0010,0.0738,-0.0028,25.4317,-1.7227,-33.2314,
4.9690,-0.1084,-0.0450,1.0442,0.0316,-0.0164,0.0144,0.0149,0.1089,-0.0019,25.4317,-1.7227,-33.2314,
4.9710,-0.1073,-0.0475,1.0393,0.0316,-0.0164,0.0144,0.0149,0.1089,-0.0019,25.4317,-1.7227,-33.2314,
5.0130,-0.1073,-0.0475,1.0393,0.0461,-0.0472,0.1575,0.0149,0.1089,-0.0019,25.4317,-1.7227,-33.2314,
5.0140,-0.1073,-0.0475,1.0393,0.0461,-0.0472,0.1575,0.0323,0.0832,-0.0022,25.4317,-1.7227,-33.2314,
5.0150,-0.1057,-0.0463,1.0361,0.0461,-0.0472,0.1575,0.0323,0.0832,-0.0022,25.4317,-1.7227,-33.2314,
5.0150,-0.1047,-0.0424,1.0389,0.0461,-0.0472,0.1575,0.0323,0.0832,-0.0022,25.4317,-1.7227,-33.2314,
5.0160,-0.1049,-0.0403,1.0378,0.0461,-0.0472,0.1575,0.0323,0.0832,-0.0022,25.4317,-1.7227,-33.2314,
5.0170,-0.1049,-0.0403,1.0378,0.0461,-0.0472,0.1575,0.0323,0.0832,-0.0022,25.5012,-1.7547,-33.1025,
5.0350,-0.1110,-0.0404,1.0137,0.0461,-0.0472,0.1575,0.0323,0.0832,-0.0022,25.5012,-1.7547,-33.1025,
5.0370,-0.1110,-0.0404,1.0137,0.0461,-0.0472,0.1575,0.0809,-0.0289,-0.0162,25.5012,-1.7547,-33.1025,
5.0720,-0.1165,-0.0376,0.9977,0.0461,-0.0472,0.1575,0.0809,-0.0289,-0.0162,25.5012,-1.7547,-33.1025,
5.0740,-0.1186,-0.0362,0.9948,0.0461,-0.0472,0.1575,0.0809,-0.0289,-0.0162,25.5012,-1.7547,-33.1025,
5.0740,-0.1186,-0.0362,0.9948,0.0461,-0.0472,0.1575,0.0837,-0.0646,-0.0239,25.5012,-1.7547,-33.1025,
5.0750,-0.1186,-0.0362,0.9948,0.0005,-0.0879,0.1527,0.0837,-0.0646,-0.0239,25.5012,-1.7547,-33.1025,
5.0800,-0.1186,-0.0362,0.9948,0.0005,-0.0879,0.1527,0.0837,-0.0646,-0.0239,25.5486,-1.7713,-33.0761,
5.1020,-0.1168,-0.0336,1.0051,0.0005,-0.0879,0.1527,0.0837,-0.0646,-0.0239,25.5486,-1.7713,-33.0761,
5.1480,-0.1147,-0.0311,1.0225,0.0005,-0.0879,0.1527,0.0837,-0.0646,-0.0239,25.5486,-1.7713,-33.0761,
5.1500,-0.1112,-0.0350,1.0335,0.0005,-0.0879,0.1527,0.0837,-0.0646,-0.0239,25.5486,-1.7713,-33.0761,
5.1510,-0.1112,-0.0350,1.0335,0.0005,-0.0879,0.1527,0.0837,-0.0646,-0.0239,25.5955,-1.7978,-33.0504,
5.1510,-0.1112,-0.0350,1.0335,0.0005,-0.0879,0.1527,0.0333,0.1235,-0.0120,25.5955,-1.7978,-33.0504,
5.1520,-0.1074,-0.0365,1.0399,0.0005,-0.0879,0.1527,0.0333,0.1235,-0.0120,25.5955,-1.7978,-33.0504,
5.1530,-0.1074,-0.0365,1.0399,0.0005,-0.0879,0.1527,0.0131,0.0762,-0.0071,25.5955,-1.7978,-33.0504,
5.1530,-0.1074,-0.0365,1.0399,-0.0060,-0.0371,-0.1366,0.0131,0.0762,-0.0071,25.5955,-1.7978,-33.0504,
5.1700,-0.1070,-0.0349,1.0467,-0.0060,-0.0371,-0.1366,0.0131,0.0762,-0.0071,25.5955,-1.7978,-33.0504,
5.2080,-0.1114,-0.0322,1.0476,-0.0060,-0.0371,-0.1366,0.0131,0.0762,-0.0071,25.5955,-1.7978,-33.0504,
5.2100,-0.1184,-0.0290,1.0410,-0.0060,-0.0371,-0.1366,0.0131,0.0762,-0.0071,25.5955,-1.7978,-33.0504,
5.2100,-0.1184,-0.0290,1.0410,-0.0060,-0.0371,-0.1366,0.0754,-0.0105,-0.0199,25.5955,-1.7978,-33.0504,
5.2110,-0.1184,-0.0290,1.0410,-0.0022,-0.0465,0.0188,0.0754,-0.0105,-0.0199,25.5955,-1.7978,-33.0504,
5.2140,-0.1184,-0.0290,1.0410,-0.0022,-0.0465,0.0188,0.0754,-0.0105,-0.0199,25.6293,-1.8334,-32.9872,
5.2340,-0.1229,-0.0268,1.0268,-0.0022,-0.0465,0.0188,0.0754,-0.0105,-0.0199,25.6293,-1.8334,-32.9872,
5.2350,-0.1229,-0.0268,1.0268,-0.0022,-0.0465,0.0188,0.1793,-0.0176,-0.0282,25.6293,-1.8334,-32.9872,
5.2810,-0.1229,-0.0268,1.0268,-0.0022,-0.0465,0.0188,0.1899,-0.0774,-0.0190,25.6293,-1.8334,-32.9872,
5.2830,-0.1229,-0.0268,1.0268,-0.0022,-0.0465,0.0188,0.1899,-0.0774,-0.0190,25.6478,-1.9400,-32.9804,
5.2840,-0.1207,-0.0272,1.0063,-0.0022,-0.0465,0.0188,0.1899,-0.0774,-0.0190,25.6478,-1.9400,-32.9804,
5.2850,-0.1145,-0.0260,0.9943,-0.0022,-0.0465,0.0188,0.1899,-0.0774,-0.0190,25.6478,-1.9400,-32.9804,
5.2860,-0.1145,-0.0260,0.9943,-0.0255,-0.1435,0.1985,0.1899,-0.0774,-0.0190,25.6478,-1.9400,-32.9804,
5.3020,-0.1085,-0.0217,0.9955,-0.0255,-0.1435,0.1985,0.1899,-0.0774,-0.0190,25.6478,-1.9400,-32.9804,
5.3450,-0.1085,-0.0217,0.9955,-0.0255,-0.1435,0.1985,0.0959,-0.0707,-0.0294,25.6478,-1.9400,-32.9804,
5.3460,-0.1077,-0.0157,1.0028,-0.0255,-0.1435,0.1985,0.0959,-0.0707,-0.0294,25.6478,-1.9400,-32.9804,
5.3470,-0.1112,-0.0112,1.0151,-0.0255,-0.1435,0.1985,0.0959,-0.0707,-0.0294,25.6478,-1.9400,-32.9804,
5.3480,-0.1121,-0.0074,1.0244,-0.0255,-0.1435,0.1985,0.0959,-0.0707,-0.0294,25.6478,-1.9400,-32.9804,
5.3480,-0.1121,-0.0074,1.0244,-0.0255,-0.1435,0.1985,0.0238,-0.0438,-0.0440,25.6478,-1.9400,-32.9804,
5.3490,-0.1121,-0.0074,1.0244,-0.1114,-0.0985,-0.1549,0.0238,-0.0438,-0.0440,25.6478,-1.9400,-32.9804,
5.3500,-0.1121,-0.0074,1.0244,-0.1114,-0.0985,-0.1549,0.0238,-0.0438,-0.0440,25.6729,-2.1315,-32.8886,
5.3690,-0.1119,-0.0074,1.0283,-0.1114,-0.0985,-0.1549,0.0238,-0.0438,-0.0440,25.6729,-2.1315,-32.8886,
5.4140,-0.1119,-0.0074,1.0283,-0.1114,-0.0985,-0.1549,0.0311,-0.0765,-0.0413,25.6729,-2.1315,-32.8886,
5.4150,-0.1098,-0.0081,1.0300,-0.1114,-0.0985,-0.1549,0.0311,-0.0765,-0.0413,25.6729,-2.1315,-32.8886,
5.4160,-0.1062,-0.0097,1.0261,-0.1114,-0.0985,-0.1549,0.0311,-0.0765,-0.0413,25.6729,-2.1315,-32.8886,
5.4170,-0.1062,-0.0097,1.0261,-0.1114,-0.0985,-0.1549,0.0311,-0.0765,-0.0413,25.6774,-2.2782,-32.8976,
5.4220,-0.1062,-0.0097,1.0261,-0.1114,-0.0985,-0.1549,0.0760,-0.1266,-0.0254,25.6774,-2.2782,-32.8976,
5.4230,-0.1043,-0.0101,1.0213,-0.1114,-0.0985,-0.1549,0.0760,-0.1266,-0.0254,25.6774,-2.2782,-32.8976,
5.4240,-0.1043,-0.0101,1.0213,-0.0880,0.0035,-0.1035,0.0760,-0.1266,-0.0254,25.6774,-2.2782,-32.8976,
5.4810,-0.1043,-0.0101,1.0213,-0.0880,0.0035,-0.1035,0.1059,-0.1703,-0.0162,25.6774,-2.2782,-32.8976,
5.4830,-0.1043,-0.0101,1.0213,-0.0880,0.0035,-0.1035,0.1059,-0.1703,-0.0162,25.5950,-2.4472,-32.8725,
5.4840,-0.0971,-0.0106,1.0128,-0.0880,0.0035,-0.1035,0.1059,-0.1703,-0.0162,25.5950,-2.4472,-32.8725,
5.4840,-0.0914,-0.0094,1.0074,-0.0880,0.0035,-0.1035,0.1059,-0.1703,-0.0162,25.5950,-2.4472,-32.8725,
5.4850,-0.0875,-0.0074,1.0064,-0.0880,0.0035,-0.1035,0.1059,-0.1703,-0.0162,25.5950,-2.4472,-32.8725,
5.4860,-0.0875,-0.0074,1.0064,-0.1653,-0.0220,0.0365,0.1059,-0.1703,-0.0162,25.5950,-2.4472,-32.8725,
5.5020,-0.0866,-0.0041,1.0089,-0.1653,-0.0220,0.0365,0.1059,-0.1703,-0.0162,25.5950,-2.4472,-32.8725,
5.5030,-0.0866,-0.0041,1.0089,-0.1653,-0.0220,0.0365,0.0797,-0.1217,-0.0224,25.5950,-2.4472,-32.8725,
5.5480,-0.0866,-0.0041,1.0089,-0.1653,-0.0220,0.0365,0.0244,-0.0841,-0.0272,25.5950,-2.4472,-32.8725,
5.5490,-0.0864,-0.0016,1.0147,-0.1653,-0.0220,0.0365,0.0244,-0.0841,-0.0272,25.5950,-2.4472,-32.8725,
5.5500,-0.0883,0.0016,1.0224,-0.1653,-0.0220,0.0365,0.0244,-0.0841,-0.0272,25.5950,-2.4472,-32.8725,
5.5500,-0.0883,0.0016,1.0224,-0.1653,-0.0220,0.0365,0.0244,-0.0841,-0.0272,25.4925,-2.5722,-32.9738,
5.5610,-0.0883,0.0016,1.0224,-0.0692,-0.0441,-0.1222,0.0244,-0.0841,-0.0272,25.4925,-2.5722,-32.9738,
5.5690,-0.0865,0.0024,1.0278,-0.0692,-0.0441,-0.1222,0.0244,-0.0841,-0.0272,25.4925,-2.5722,-32.9738,
5.6140,-0.0865,0.0024,1.0278,-0.0692,-0.0441,-0.1222,0.0021,-0.1184,-0.0266,25.4925,-2.5722,-32.9738,
5.6150,-0.0837,0.0010,1.0302,-0.0692,-0.0441,-0.1222,0.0021,-0.1184,-0.0266,25.4925,-2.5722,-32.9738,
5.6160,-0.0837,0.0010,1.0302,-0.0692,-0.0441,-0.1222,0.0021,-0.1184,-0.0266,25.2780,-2.7189,-32.9904,
5.6160,-0.0804,-0.0003,1.0279,-0.0692,-0.0441,-0.1222,0.0021,-0.1184,-0.0266,25.2780,-2.7189,-32.9904,
5.6170,-0.0804,-0.0003,1.0279,-0.0692,-0.0441,-0.1222,0.0342,-0.1880,-0.0187,25.2780,-2.7189,-32.9904,
5.6180,-0.0784,-0.0028,1.0216,-0.0692,-0.0441,-0.1222,0.0342,-0.1880,-0.0187,25.2780,-2.7189,-32.9904,
5.6180,-0.0784,-0.0028,1.0216,-0.1040,0.0234,-0.0577,0.0342,-0.1880,-0.0187,25.2780,-2.7189,-32.9904,
5.6820,-0.0739,-0.0053,1.0119,-0.1040,0.0234,-0.0577,0.0342,-0.1880,-0.0187,25.2780,-2.7189,-32.9904,
5.6840,-0.0619,-0.0063,1.0079,-0.1040,0.0234,-0.0577,0.0342,-0.1880,-0.0187,25.2780,-2.7189,-32.9904,
5.6850,-0.0548,-0.0042,1.0051,-0.1040,0.0234,-0.0577,0.0342,-0.1880,-0.0187,25.2780,-2.7189,-32.9904,
5.6850,-0.0548,-0.0042,1.0051,-0.1040,0.0234,-0.0577,0.0342,-0.1880,-0.0187,24.9796,-2.8730,-33.1261,
5.6880,-0.0548,-0.0042,1.0051,-0.1040,0.0234,-0.0577,0.0757,-0.2008,-0.0062,24.9796,-2.8730,-33.1261,
5.6960,-0.0548,-0.0042,1.0051,-0.1040,0.0234,-0.0577,0.0632,-0.0875,-0.0022,24.9796,-2.8730,-33.1261,
5.6970,-0.0558,0.0010,1.0093,-0.1040,0.0234,-0.0577,0.0632,-0.0875,-0.0022,24.9796,-2.8730,-33.1261,
5.6980,-0.0558,0.0010,1.0093,-0.1364,-0.0188,0.0274,0.0632,-0.0875,-0.0022,24.9796,-2.8730,-33.1261,
5.7480,-0.0564,0.0068,1.0208,-0.1364,-0.0188,0.0274,0.0632,-0.0875,-0.0022,24.9796,-2.8730,-33.1261,
5.7490,-0.0564,0.0068,1.0208,-0.1364,-0.0188,0.0274,0.0198,-0.1196,-0.0162,24.9796,-2.8730,-33.1261,
5.7500,-0.0616,0.0111,1.0185,-0.1364,-0.0188,0.0274,0.0198,-0.1196,-0.0162,24.9796,-2.8730,-33.1261,
5.7500,-0.0616,0.0111,1.0185,-0.1364,-0.0188,0.0274,0.0198,-0.1196,-0.0162,24.7186,-3.0275,-33.3247,
5.7540,-0.0706,0.0115,1.0074,-0.1364,-0.0188,0.0274,0.0198,-0.1196,-0.0162,24.7186,-3.0275,-33.3247,
5.7550,-0.0706,0.0115,1.0074,-0.0367,-0.0646,-0.1435,0.0198,-0.1196,-0.0162,24.7186,-3.0275,-33.3247,
5.8150,-0.0644,0.0110,1.0071,-0.0367,-0.0646,-0.1435,0.0198,-0.1196,-0.0162,24.7186,-3.0275,-33.3247,
5.8170,-0.0644,0.0110,1.0071,-0.0367,-0.0646,-0.1435,0.0039,-0.1767,-0.0199,24.7186,-3.0275,-33.3247,
5.8180,-0.0644,0.0110,1.0071,-0.0367,-0.0646,-0.1435,0.0039,-0.1767,-0.0199,24.4083,-3.1829,-33.4865,
5.8190,-0.0644,0.0110,1.0071,-0.0367,-0.0646,-0.1435,0.0275,-0.1352,0.0082,24.4083,-3.1829,-33.4865,
5.8190,-0.0494,0.0075,1.0092,-0.0367,-0.0646,-0.1435,0.0275,-0.1352,0.0082,24.4083,-3.1829,-33.4865,
5.8200,-0.0364,0.0024,1.0052,-0.0367,-0.0646,-0.1435,0.0275,-0.1352,0.0082,24.4083,-3.1829,-33.4865,
5.8330,-0.0364,0.0024,1.0052,-0.1102,0.0439,-0.0718,0.0275,-0.1352,0.0082,24.4083,-3.1829,-33.4865,
5.8340,-0.0301,-0.0007,0.9973,-0.1102,0.0439,-0.0718,0.0275,-0.1352,0.0082,24.4083,-3.1829,-33.4865,
5.8800,-0.0292,0.0008,0.9941,-0.1102,0.0439,-0.0718,0.0275,-0.1352,0.0082,24.4083,-3.1829,-33.4865,
5.8820,-0.0292,0.0008,0.9941,-0.1102,0.0439,-0.0718,0.0275,-0.1352,0.0082,24.0196,-3.2264,-33.7084,
5.8820,-0.0312,0.0082,0.9920,-0.1102,0.0439,-0.0718,0.0275,-0.1352,0.0082,24.0196,-3.2264,-33.7084,
5.8820,-0.0312,0.0082,0.9920,-0.1102,0.0439,-0.0718,0.0348,-0.0826,0.0039,24.0196,-3.2264,-33.7084,
5.8920,-0.0330,0.0101,0.9915,-0.1102,0.0439,-0.0718,0.0348,-0.0826,0.0039,24.0196,-3.2264,-33.7084,
5.8930,-0.0330,0.0101,0.9915,-0.1102,0.0439,-0.0718,-0.0025,-0.0661,-0.0068,24.0196,-3.2264,-33.7084,
5.8930,-0.0330,0.0101,0.9915,-0.0154,0.0080,-0.1449,-0.0025,-0.0661,-0.0068,24.0196,-3.2264,-33.7084,
5.9480,-0.0330,0.0101,0.9915,-0.0154,0.0080,-0.1449,-0.0025,-0.0661,-0.0068,23.6437,-3.2595,-33.9292,
5.9500,-0.0330,0.0101,0.9915,-0.0154,0.0080,-0.1449,-0.0431,-0.0331,-0.0065,23.6437,-3.2595,-33.9292,
5.9510,-0.0343,0.0109,0.9914,-0.0154,0.0080,-0.1449,-0.0431,-0.0331,-0.0065,23.6437,-3.2595,-33.9292,
5.9510,-0.0391,0.0108,0.9922,-0.0154,0.0080,-0.1449,-0.0431,-0.0331,-0.0065,23.6437,-3.2595,-33.9292,
5.9690,-0.0428,0.0058,0.9959,-0.0154,0.0080,-0.1449,-0.0431,-0.0331,-0.0065,23.6437,-3.2595,-33.9292,
5.9710,-0.0428,0.0058,0.9959,-0.0154,0.0080,-0.1449,-0.0599,0.0237,-0.0031,23.6437,-3.2595,-33.9292,
5.9710,-0.0397,0.0010,1.0073,-0.0154,0.0080,-0.1449,-0.0599,0.0237,-0.0031,23.6437,-3.2595,-33.9292,
5.9720,-0.0397,0.0010,1.0073,0.1182,0.0307,-0.2418,-0.0599,0.0237,-0.0031,23.6437,-3.2595,-33.9292,
6.0140,-0.0397,0.0010,1.0073,0.1182,0.0307,-0.2418,-0.0599,0.0237,-0.0031,23.3755,-3.3049,-34.0699,
6.0150,-0.0397,0.0010,1.0073,0.1182,0.0307,-0.2418,-0.0636,0.1214,-0.0049,23.3755,-3.3049,-34.0699,
6.0160,-0.0381,-0.0012,1.0196,0.1182,0.0307,-0.2418,-0.0636,0.1214,-0.0049,23.3755,-3.3049,-34.0699,
6.0160,-0.0443,-0.0022,1.0222,0.1182,0.0307,-0.2418,-0.0636,0.1214,-0.0049,23.3755,-3.3049,-34.0699,
6.0280,-0.0443,-0.0022,1.0222,0.0822,0.0927,-0.1994,-0.0636,0.1214,-0.0049,23.3755,-3.3049,-34.0699,
6.0300,-0.0476,-0.0002,1.0139,0.0822,0.0927,-0.1994,-0.0636,0.1214,-0.0049,23.3755,-3.3049,-34.0699,
6.0830,-0.0437,0.0028,1.0082,0.0822,0.0927,-0.1994,-0.0636,0.1214,-0.0049,23.3755,-3.3049,-34.0699,
6.0850,-0.0437,0.0028,1.0082,0.0822,0.0927,-0.1994,-0.0749,-0.0469,-0.0126,23.3755,-3.3049,-34.0699,
6.0860,-0.0437,0.0028,1.0082,0.0822,0.0927,-0.1994,-0.0749,-0.0469,-0.0126,23.1947,-3.2963,-34.1656,
6.0860,-0.0382,0.0021,1.0084,0.0822,0.0927,-0.1994,-0.0749,-0.0469,-0.0126,23.1947,-3.2963,-34.1656,
6.1020,-0.0370,-0.0007,1.0129,0.0822,0.0927,-0.1994,-0.0749,-0.0469,-0.0126,23.1947,-3.2963,-34.1656,
6.1030,-0.0370,-0.0007,1.0129,0.0822,0.0927,-0.1994,-0.0752,-0.0011,-0.0074,23.1947,-3.2963,-34.1656,
6.1050,-0.0370,-0.0007,1.0129,0.0362,0.0482,0.0230,-0.0752,-0.0011,-0.0074,23.1947,-3.2963,-34.1656,
6.1470,-0.0370,-0.0007,1.0129,0.0362,0.0482,0.0230,-0.0623,0.1141,0.0106,23.1947,-3.2963,-34.1656,
6.1480,-0.0386,-0.0071,1.0201,0.0362,0.0482,0.0230,-0.0623,0.1141,0.0106,23.1947,-3.2963,-34.1656,
6.1490,-0.0426,-0.0127,1.0224,0.0362,0.0482,0.0230,-0.0623,0.1141,0.0106,23.1947,-3.2963,-34.1656,
6.1490,-0.0426,-0.0157,1.0221,0.0362,0.0482,0.0230,-0.0623,0.1141,0.0106,23.1947,-3.2963,-34.1656,
6.1500,-0.0426,-0.0157,1.0221,0.0362,0.0482,0.0230,-0.0623,0.1141,0.0106,23.1398,-3.2142,-34.2780,
6.1640,-0.0451,-0.0176,1.0238,0.0362,0.0482,0.0230,-0.0623,0.1141,0.0106,23.1398,-3.2142,-34.2780,
6.1650,-0.0451,-0.0176,1.0238,0.0362,0.0482,0.0230,-0.0544,0.0661,0.0097,23.1398,-3.2142,-34.2780,
6.1660,-0.0451,-0.0176,1.0238,0.1125,0.0894,-0.0318,-0.0544,0.0661,0.0097,23.1398,-3.2142,-34.2780,
6.2160,-0.0451,-0.0176,1.0238,0.1125,0.0894,-0.0318,-0.0596,0.0973,0.0064,23.1398,-3.2142,-34.2780,
6.2180,-0.0524,-0.0160,1.0269,0.1125,0.0894,-0.0318,-0.0596,0.0973,0.0064,23.1398,-3.2142,-34.2780,
6.2190,-0.0591,-0.0138,1.0305,0.1125,0.0894,-0.0318,-0.0596,0.0973,0.0064,23.1398,-3.2142,-34.2780,
6.2200,-0.0591,-0.0138,1.0305,0.1125,0.0894,-0.0318,-0.0596,0.0973,0.0064,23.1565,-3.1474,-34.3504,
6.2360,-0.0602,-0.0108,1.0330,0.1125,0.0894,-0.0318,-0.0596,0.0973,0.0064,23.1565,-3.1474,-34.3504,
6.2410,-0.0577,-0.0102,1.0313,0.1125,0.0894,-0.0318,-0.0596,0.0973,0.0064,23.1565,-3.1474,-34.3504,
6.2420,-0.0577,-0.0102,1.0313,0.1125,0.0894,-0.0318,-0.0581,0.0881,0.0103,23.1565,-3.1474,-34.3504,
6.2430,-0.0577,-0.0102,1.0313,0.1262,-0.0135,0.0724,-0.0581,0.0881,0.0103,23.1565,-3.1474,-34.3504,
6.2810,-0.0567,-0.0124,1.0282,0.1262,-0.0135,0.0724,-0.0581,0.0881,0.0103,23.1565,-3.1474,-34.3504,
6.2830,-0.0567,-0.0124,1.0282,0.1262,-0.0135,0.0724,-0.0581,0.0881,0.0103,23.1609,-3.0696,-34.3711,
6.3010,-0.0567,-0.0124,1.0282,0.0335,0.0305,0.1372,-0.0581,0.0881,0.0103,23.1609,-3.0696,-34.3711,
6.3020,-0.0567,-0.0124,1.0282,0.0335,0.0305,0.1372,-0.0532,0.0927,0.0097,23.1609,-3.0696,-34.3711,
6.3030,-0.0578,-0.0146,1.0256,0.0335,0.0305,0.1372,-0.0532,0.0927,0.0097,23.1609,-3.0696,-34.3711,
6.3040,-0.0590,-0.0172,1.0228,0.0335,0.0305,0.1372,-0.0532,0.0927,0.0097,23.1609,-3.0696,-34.3711,
6.3480,-0.0610,-0.0188,1.0199,0.0335,0.0305,0.1372,-0.0532,0.0927,0.0097,23.1609,-3.0696,-34.3711,
6.3490,-0.0610,-0.0188,1.0199,0.0335,0.0305,0.1372,-0.0532,0.0927,0.0097,23.2044,-2.9407,-34.3744,
6.3500,-0.0577,-0.0207,1.0180,0.0335,0.0305,0.1372,-0.0532,0.0927,0.0097,23.2044,-2.9407,-34.3744,
6.3500,-0.0577,-0.0207,1.0180,0.0335,0.0305,0.1372,-0.0455,0.0310,0.0054,23.2044,-2.9407,-34.3744,
6.3690,-0.0585,-0.0213,1.0167,0.0335,0.0305,0.1372,-0.0455,0.0310,0.0054,23.2044,-2.9407,-34.3744,
6.3700,-0.0585,-0.0213,1.0167,0.0335,0.0305,0.1372,-0.0349,0.0383,0.0039,23.2044,-2.9407,-34.3744,
6.3790,-0.0585,-0.0213,1.0167,0.0516,0.0404,0.0876,-0.0349,0.0383,0.0039,23.2044,-2.9407,-34.3744,
6.4140,-0.0606,-0.0195,1.0229,0.0516,0.0404,0.0876,-0.0349,0.0383,0.0039,23.2044,-2.9407,-34.3744,
6.4160,-0.0629,-0.0212,1.0324,0.0516,0.0404,0.0876,-0.0349,0.0383,0.0039,23.2044,-2.9407,-34.3744,
6.4160,-0.0629,-0.0212,1.0324,0.0516,0.0404,0.0876,-0.0373,0.1126,0.0112,23.2044,-2.9407,-34.3744,
6.4170,-0.0629,-0.0212,1.0324,0.0516,0.0404,0.0876,-0.0373,0.1126,0.0112,23.4182,-2.7814,-34.2670,
6.4380,-0.0734,-0.0205,1.0207,0.0516,0.0404,0.0876,-0.0373,0.1126,0.0112,23.4182,-2.7814,-34.2670,
6.4390,-0.0770,-0.0218,1.0051,0.0516,0.0404,0.0876,-0.0373,0.1126,0.0112,23.4182,-2.7814,-34.2670,
6.4400,-0.0770,-0.0218,1.0051,0.0516,0.0404,0.0876,-0.0309,-0.0286,0.0027,23.4182,-2.7814,-34.2670,
6.4410,-0.0770,-0.0218,1.0051,0.0527,0.0021,0.0112,-0.0309,-0.0286,0.0027,23.4182,-2.7814,-34.2670,
6.4820,-0.0724,-0.0249,1.0003,0.0527,0.0021,0.0112,-0.0309,-0.0286,0.0027,23.4182,-2.7814,-34.2670,
6.4830,-0.0724,-0.0249,1.0003,0.0527,0.0021,0.0112,-0.0309,-0.0286,0.0027,23.5824,-2.6443,-34.1757,
6.4840,-0.0724,-0.0249,1.0003,0.0527,0.0021,0.0112,-0.0627,0.0066,-0.0019,23.5824,-2.6443,-34.1757,
6.4850,-0.0673,-0.0261,1.0096,0.0527,0.0021,0.0112,-0.0627,0.0066,-0.0019,23.5824,-2.6443,-34.1757,
6.5020,-0.0671,-0.0257,1.0217,0.0527,0.0021,0.0112,-0.0627,0.0066,-0.0019,23.5824,-2.6443,-34.1757,
6.5180,-0.0674,-0.0271,1.0277,0.0527,0.0021,0.0112,-0.0627,0.0066,-0.0019,23.5824,-2.6443,-34.1757,
6.5200,-0.0674,-0.0271,1.0277,0.0527,0.0021,0.0112,-0.0911,0.1455,0.0128,23.5824,-2.6443,-34.1757,
6.5200,-0.0674,-0.0271,1.0277,-0.0016,0.0423,0.0307,-0.0911,0.1455,0.0128,23.5824,-2.6443,-34.1757,
6.5470,-0.0674,-0.0271,1.0277,-0.0016,0.0423,0.0307,-0.0911,0.1455,0.0128,23.7267,-2.4305,-34.1059,
6.5490,-0.0639,-0.0306,1.0278,-0.0016,0.0423,0.0307,-0.0911,0.1455,0.0128,23.7267,-2.4305,-34.1059,
6.5690,-0.0639,-0.0306,1.0278,-0.0016,0.0423,0.0307,-0.0718,0.0735,0.0152,23.7267,-2.4305,-34.1059,
6.5700,-0.0632,-0.0331,1.0316,-0.0016,0.0423,0.0307,-0.0718,0.0735,0.0152,23.7267,-2.4305,-34.1059,
6.5740,-0.0632,-0.0331,1.0316,0.0539,0.0350,-0.0333,-0.0718,0.0735,0.0152,23.7267,-2.4305,-34.1059,
6.5750,-0.0693,-0.0337,1.0332,0.0539,0.0350,-0.0333,-0.0718,0.0735,0.0152,23.7267,-2.4305,-34.1059,
6.6140,-0.0693,-0.0337,1.0332,0.0539,0.0350,-0.0333,-0.0718,0.0735,0.0152,23.8188,-2.2880,-34.0553,
6.6160,-0.0693,-0.0337,1.0332,0.0539,0.0350,-0.0333,-0.0272,0.0652,-0.0025,23.8188,-2.2880,-34.0553,
6.6160,-0.0795,-0.0305,1.0307,0.0539,0.0350,-0.0333,-0.0272,0.0652,-0.0025,23.8188,-2.2880,-34.0553,
6.6170,-0.0848,-0.0305,1.0253,0.0539,0.0350,-0.0333,-0.0272,0.0652,-0.0025,23.8188,-2.2880,-34.0553,
6.6350,-0.0853,-0.0333,1.0169,0.0539,0.0350,-0.0333,-0.0272,0.0652,-0.0025,23.8188,-2.2880,-34.0553,
6.6370,-0.0853,-0.0333,1.0169,0.0539,0.0350,-0.0333,-0.0025,0.0451,-0.0028,23.8188,-2.2880,-34.0553,
6.6520,-0.0853,-0.0333,1.0169,0.1039,-0.0192,0.1260,-0.0025,0.0451,-0.0028,23.8188,-2.2880,-34.0553,
6.6800,-0.0801,-0.0366,1.0136,0.1039,-0.0192,0.1260,-0.0025,0.0451,-0.0028,23.8188,-2.2880,-34.0553,
6.6810,-0.0801,-0.0366,1.0136,0.1039,-0.0192,0.1260,-0.0202,0.0310,0.0042,23.8188,-2.2880,-34.0553,
6.6820,-0.0789,-0.0345,1.0137,0.1039,-0.0192,0.1260,-0.0202,0.0310,0.0042,23.8188,-2.2880,-34.0553,
6.6830,-0.0789,-0.0345,1.0137,0.1039,-0.0192,0.1260,-0.0202,0.0310,0.0042,23.9325,-2.1822,-33.9548,
6.7030,-0.0796,-0.0332,1.0145,0.1039,-0.0192,0.1260,-0.0202,0.0310,0.0042,23.9325,-2.1822,-33.9548,
6.7110,-0.0796,-0.0332,1.0145,0.1039,-0.0192,0.1260,-0.0330,0.0166,0.0030,23.9325,-2.1822,-33.9548,
6.7120,-0.0796,-0.0332,1.0145,-0.0438,-0.0020,0.0467,-0.0330,0.0166,0.0030,23.9325,-2.1822,-33.9548,
6.7130,-0.0798,-0.0340,1.0153,-0.0438,-0.0020,0.0467,-0.0330,0.0166,0.0030,23.9325,-2.1822,-33.9548,
6.7480,-0.0798,-0.0340,1.0153,-0.0438,-0.0020,0.0467,-0.0330,0.0166,0.0030,24.0346,-2.0670,-33.8541,
6.7490,-0.0805,-0.0344,1.0175,-0.0438,-0.0020,0.0467,-0.0330,0.0166,0.0030,24.0346,-2.0670,-33.8541,
6.7690,-0.0809,-0.0359,1.0189,-0.0438,-0.0020,0.0467,-0.0330,0.0166,0.0030,24.0346,-2.0670,-33.8541,
6.7710,-0.0831,-0.0372,1.0192,-0.0438,-0.0020,0.0467,-0.0330,0.0166,0.0030,24.0346,-2.0670,-33.8541,
6.7710,-0.0831,-0.0372,1.0192,-0.0438,-0.0020,0.0467,-0.0257,0.0218,-0.0004,24.0346,-2.0670,-33.8541,
6.7900,-0.0831,-0.0372,1.0192,-0.0438,-0.0020,0.0467,-0.0138,0.0536,0.0005,24.0346,-2.0670,-33.8541,
6.7910,-0.0831,-0.0372,1.0192,0.0132,-0.0081,-0.0297,-0.0138,0.0536,0.0005,24.0346,-2.0670,-33.8541,
6.8140,-0.0825,-0.0365,1.0203,0.0132,-0.0081,-0.0297,-0.0138,0.0536,0.0005,24.0346,-2.0670,-33.8541,
6.8150,-0.0825,-0.0365,1.0203,0.0132,-0.0081,-0.0297,-0.0138,0.0536,0.0005,24.1605,-1.9495,-33.7140,
6.8160,-0.0829,-0.0381,1.0208,0.0132,-0.0081,-0.0297,-0.0138,0.0536,0.0005,24.1605,-1.9495,-33.7140,
6.8350,-0.0825,-0.0382,1.0208,0.0132,-0.0081,-0.0297,-0.0138,0.0536,0.0005,24.1605,-1.9495,-33.7140,
6.8360,-0.0825,-0.0382,1.0208,0.0132,-0.0081,-0.0297,-0.0071,0.0536,0.0039,24.1605,-1.9495,-33.7140,
6.8470,-0.0840,-0.0375,1.0202,0.0132,-0.0081,-0.0297,-0.0071,0.0536,0.0039,24.1605,-1.9495,-33.7140,
6.8480,-0.0840,-0.0375,1.0202,0.0245,-0.0161,0.0135,-0.0071,0.0536,0.0039,24.1605,-1.9495,-33.7140,
6.8810,-0.0840,-0.0375,1.0202,0.0245,-0.0161,0.0135,-0.0080,0.0475,0.0015,24.1605,-1.9495,-33.7140,
6.8820,-0.0869,-0.0380,1.0184,0.0245,-0.0161,0.0135,-0.0080,0.0475,0.0015,24.1605,-1.9495,-33.7140,
6.8820,-0.0869,-0.0380,1.0184,0.0245,-0.0161,0.0135,-0.0080,0.0475,0.0015,24.3331,-1.8688,-33.5616,
6.9020,-0.0903,-0.0382,1.0175,0.0245,-0.0161,0.0135,-0.0080,0.0475,0.0015,24.3331,-1.8688,-33.5616,
6.9250,-0.0903,-0.0382,1.0175,0.0283,-0.0185,0.0322,-0.0080,0.0475,0.0015,24.3331,-1.8688,-33.5616,
6.9260,-0.0903,-0.0382,1.0175,0.0283,-0.0185,0.0322,-0.0245,0.0237,-0.0001,24.3331,-1.8688,-33.5616,
6.9270,-0.0902,-0.0382,1.0191,0.0283,-0.0185,0.0322,-0.0245,0.0237,-0.0001,24.3331,-1.8688,-33.5616,
6.9470,-0.0902,-0.0382,1.0191,0.0283,-0.0185,0.0322,-0.0257,0.0383,0.0039,24.3331,-1.8688,-33.5616,
6.9480,-0.0902,-0.0382,1.0191,0.0283,-0.0185,0.0322,-0.0257,0.0383,0.0039,24.4710,-1.7945,-33.5650,
6.9490,-0.0889,-0.0383,1.0238,0.0283,-0.0185,0.0322,-0.0257,0.0383,0.0039,24.4710,-1.7945,-33.5650,
6.9500,-0.0897,-0.0365,1.0263,0.0283,-0.0185,0.0322,-0.0257,0.0383,0.0039,24.4710,-1.7945,-33.5650,
6.9690,-0.0908,-0.0350,1.0250,0.0283,-0.0185,0.0322,-0.0257,0.0383,0.0039,24.4710,-1.7945,-33.5650,
6.9860,-0.0908,-0.0350,1.0250,0.0283,-0.0185,0.0322,0.0048,0.0197,0.0021,24.4710,-1.7945,-33.5650,
6.9870,-0.0906,-0.0358,1.0189,0.0283,-0.0185,0.0322,0.0048,0.0197,0.0021,24.4710,-1.7945,-33.5650,
6.9880,-0.0906,-0.0358,1.0189,-0.0109,-0.0157,0.0135,0.0048,0.0197,0.0021,24.4710,-1.7945,-33.5650,
7.0140,-0.0882,-0.0388,1.0135,-0.0109,-0.0157,0.0135,0.0048,0.0197,0.0021,24.4710,-1.7945,-33.5650,
7.0160,-0.0882,-0.0388,1.0135,-0.0109,-0.0157,0.0135,0.0048,0.0197,0.0021,24.6062,-1.7468,-33.4802,
7.0360,-0.0882,-0.0388,1.0135,-0.0109,-0.0157,0.0135,0.0079,0.0038,0.0021,24.6062,-1.7468,-33.4802,
7.0380,-0.0889,-0.0414,1.0151,-0.0109,-0.0157,0.0135,0.0079,0.0038,0.0021,24.6062,-1.7468,-33.4802,
7.0620,-0.0889,-0.0414,1.0151,-0.0109,-0.0157,0.0135,-0.0040,0.0237,0.0012,24.6062,-1.7468,-33.4802,
7.0630,-0.0889,-0.0414,1.0151,-0.0114,0.0027,0.0554,-0.0040,0.0237,0.0012,24.6062,-1.7468,-33.4802,
7.0640,-0.0921,-0.0424,1.0164,-0.0114,0.0027,0.0554,-0.0040,0.0237,0.0012,24.6062,-1.7468,-33.4802,
7.0640,-0.0903,-0.0425,1.0155,-0.0114,0.0027,0.0554,-0.0040,0.0237,0.0012,24.6062,-1.7468,-33.4802,
7.0820,-0.0903,-0.0425,1.0155,-0.0114,0.0027,0.0554,-0.0040,0.0237,0.0012,24.7271,-1.7610,-33.4768,
7.1020,-0.0895,-0.0416,1.0205,-0.0114,0.0027,0.0554,-0.0040,0.0237,0.0012,24.7271,-1.7610,-33.4768,
7.1030,-0.0895,-0.0416,1.0205,-0.0114,0.0027,0.0554,-0.0135,0.0484,0.0060,24.7271,-1.7610,-33.4768,
7.1030,-0.0919,-0.0408,1.0286,-0.0114,0.0027,0.0554,-0.0135,0.0484,0.0060,24.7271,-1.7610,-33.4768,
7.1200,-0.0919,-0.0408,1.0286,0.0132,-0.0364,-0.0244,-0.0135,0.0484,0.0060,24.7271,-1.7610,-33.4768,
7.1210,-0.0952,-0.0414,1.0306,0.0132,-0.0364,-0.0244,-0.0135,0.0484,0.0060,24.7271,-1.7610,-33.4768,
7.1470,-0.0952,-0.0414,1.0306,0.0132,-0.0364,-0.0244,-0.0135,0.0484,0.0060,24.8501,-1.7249,-33.4317,
7.1500,-0.0981,-0.0364,1.0092,0.0132,-0.0364,-0.0244,-0.0135,0.0484,0.0060,24.8501,-1.7249,-33.4317,
7.1500,-0.0981,-0.0364,1.0092,0.0132,-0.0364,-0.0244,0.0113,-0.0301,0.0015,24.8501,-1.7249,-33.4317,
7.1700,-0.0978,-0.0353,0.9971,0.0132,-0.0364,-0.0244,0.0113,-0.0301,0.0015,24.8501,-1.7249,-33.4317,
7.1990,-0.0908,-0.0360,0.9964,0.0132,-0.0364,-0.0244,0.0113,-0.0301,0.0015,24.8501,-1.7249,-33.4317,
7.2010,-0.0908,-0.0360,0.9964,0.0132,-0.0364,-0.0244,-0.0025,-0.0820,-0.0046,24.8501,-1.7249,-33.4317,
7.2010,-0.0908,-0.0360,0.9964,-0.0423,-0.0356,0.0617,-0.0025,-0.0820,-0.0046,24.8501,-1.7249,-33.4317,
7.2130,-0.0895,-0.0359,1.0118,-0.0423,-0.0356,0.0617,-0.0025,-0.0820,-0.0046,24.8501,-1.7249,-33.4317,
7.2140,-0.0895,-0.0359,1.0118,-0.0423,-0.0356,0.0617,-0.0025,-0.0820,-0.0046,24.8974,-1.7412,-33.3926,
7.2350,-0.0895,-0.0359,1.0118,-0.0423,-0.0356,0.0617,-0.0535,0.0927,0.0030,24.8974,-1.7412,-33.3926,
7.2360,-0.0917,-0.0400,1.0299,-0.0423,-0.0356,0.0617,-0.0535,0.0927,0.0030,24.8974,-1.7412,-33.3926,
7.2570,-0.0917,-0.0400,1.0299,-0.0423,-0.0356,0.0617,-0.0373,0.0698,0.0076,24.8974,-1.7412,-33.3926,
7.2580,-0.0900,-0.0441,1.0350,-0.0423,-0.0356,0.0617,-0.0373,0.0698,0.0076,24.8974,-1.7412,-33.3926,
7.2590,-0.0880,-0.0461,1.0332,-0.0423,-0.0356,0.0617,-0.0373,0.0698,0.0076,24.8974,-1.7412,-33.3926,
7.2590,-0.0880,-0.0461,1.0332,-0.0092,0.0459,-0.1415,-0.0373,0.0698,0.0076,24.8974,-1.7412,-33.3926,
7.2800,-0.0903,-0.0438,1.0297,-0.0092,0.0459,-0.1415,-0.0373,0.0698,0.0076,24.8974,-1.7412,-33.3926,
7.2810,-0.0903,-0.0438,1.0297,-0.0092,0.0459,-0.1415,-0.0373,0.0698,0.0076,24.9973,-1.6873,-33.3729,
7.3020,-0.0936,-0.0399,1.0229,-0.0092,0.0459,-0.1415,-0.0373,0.0698,0.0076,24.9973,-1.6873,-33.3729,
7.3030,-0.0936,-0.0399,1.0229,-0.0092,0.0459,-0.1415,-0.0025,-0.0011,0.0024,24.9973,-1.6873,-33.3729,
7.3360,-0.0949,-0.0414,1.0164,-0.0092,0.0459,-0.1415,-0.0025,-0.0011,0.0024,24.9973,-1.6873,-33.3729,
7.3380,-0.0949,-0.0414,1.0164,-0.0092,0.0459,-0.1415,-0.0013,-0.0218,-0.0022,24.9973,-1.6873,-33.3729,
7.3390,-0.0972,-0.0428,1.0135,-0.0092,0.0459,-0.1415,-0.0013,-0.0218,-0.0022,24.9973,-1.6873,-33.3729,
7.3390,-0.0972,-0.0428,1.0135,0.0264,-0.0161,0.1226,-0.0013,-0.0218,-0.0022,24.9973,-1.6873,-33.3729,
7.3470,-0.0972,-0.0428,1.0135,0.0264,-0.0161,0.1226,-0.0013,-0.0218,-0.0022,25.0710,-1.6743,-33.3695,
7.3710,-0.0975,-0.0437,1.0120,0.0264,-0.0161,0.1226,-0.0013,-0.0218,-0.0022,25.0710,-1.6743,-33.3695,
7.3950,-0.0975,-0.0437,1.0120,0.0264,-0.0161,0.1226,-0.0242,0.0228,-0.0007,25.0710,-1.6743,-33.3695,
7.3960,-0.0966,-0.0436,1.0185,0.0264,-0.0161,0.1226,-0.0242,0.0228,-0.0007,25.0710,-1.6743,-33.3695,
7.3960,-0.0977,-0.0438,1.0269,0.0264,-0.0161,0.1226,-0.0242,0.0228,-0.0007,25.0710,-1.6743,-33.3695,
7.3970,-0.0977,-0.0438,1.0269,0.0053,0.0053,0.0354,-0.0242,0.0228,-0.0007,25.0710,-1.6743,-33.3695,
7.4140,-0.0986,-0.0442,1.0264,0.0053,0.0053,0.0354,-0.0242,0.0228,-0.0007,25.0710,-1.6743,-33.3695,
7.4150,-0.0986,-0.0442,1.0264,0.0053,0.0053,0.0354,-0.0260,0.0221,-0.0001,25.0710,-1.6743,-33.3695,
7.4150,-0.0986,-0.0442,1.0264,0.0053,0.0053,0.0354,-0.0260,0.0221,-0.0001,25.1215,-1.6541,-33.4178,
7.4360,-0.0965,-0.0441,1.0214,0.0053,0.0053,0.0354,-0.0260,0.0221,-0.0001,25.1215,-1.6541,-33.4178,
7.4720,-0.0965,-0.0441,1.0214,0.0053,0.0053,0.0354,0.0015,-0.0115,-0.0028,25.1215,-1.6541,-33.4178,
7.4740,-0.0950,-0.0435,1.0153,0.0053,0.0053,0.0354,0.0015,-0.0115,-0.0028,25.1215,-1.6541,-33.4178,
7.4740,-0.0956,-0.0443,1.0144,0.0053,0.0053,0.0354,0.0015,-0.0115,-0.0028,25.1215,-1.6541,-33.4178,
7.4750,-0.0956,-0.0443,1.0144,-0.0307,-0.0081,0.0016,0.0015,-0.0115,-0.0028,25.1215,-1.6541,-33.4178,
7.4800,-0.0956,-0.0443,1.0144,-0.0307,-0.0081,0.0016,0.0015,-0.0115,-0.0028,25.1730,-1.6032,-33.4257,
7.5020,-0.0959,-0.0464,1.0164,-0.0307,-0.0081,0.0016,0.0015,-0.0115,-0.0028,25.1730,-1.6032,-33.4257,
7.5030,-0.0959,-0.0464,1.0164,-0.0307,-0.0081,0.0016,0.0012,0.0237,-0.0007,25.1730,-1.6032,-33.4257,
7.5300,-0.0958,-0.0460,1.0197,-0.0307,-0.0081,0.0016,0.0012,0.0237,-0.0007,25.1730,-1.6032,-33.4257,
7.5320,-0.0958,-0.0460,1.0197,-0.0307,-0.0081,0.0016,-0.0107,0.0301,0.0002,25.1730,-1.6032,-33.4257,
7.5320,-0.0974,-0.0469,1.0225,-0.0307,-0.0081,0.0016,-0.0107,0.0301,0.0002,25.1730,-1.6032,-33.4257,
7.5330,-0.0974,-0.0469,1.0225,-0.0019,-0.0067,0.0187,-0.0107,0.0301,0.0002,25.1730,-1.6032,-33.4257,
7.5470,-0.0974,-0.0469,1.0225,-0.0019,-0.0067,0.0187,-0.0107,0.0301,0.0002,25.2337,-1.5886,-33.3584,
7.5690,-0.0964,-0.0476,1.0224,-0.0019,-0.0067,0.0187,-0.0107,0.0301,0.0002,25.2337,-1.5886,-33.3584,
7.5710,-0.0964,-0.0476,1.0224,-0.0019,-0.0067,0.0187,-0.0080,0.0157,-0.0001,25.2337,-1.5886,-33.3584,
7.5710,-0.0987,-0.0472,1.0208,-0.0019,-0.0067,0.0187,-0.0080,0.0157,-0.0001,25.2337,-1.5886,-33.3584,
7.6090,-0.0987,-0.0472,1.0208,-0.0019,-0.0067,0.0187,-0.0083,0.0035,-0.0001,25.2337,-1.5886,-33.3584,
7.6110,-0.0998,-0.0476,1.0188,-0.0019,-0.0067,0.0187,-0.0083,0.0035,-0.0001,25.2337,-1.5886,-33.3584,
7.6120,-0.0989,-0.0470,1.0169,-0.0019,-0.0067,0.0187,-0.0083,0.0035,-0.0001,25.2337,-1.5886,-33.3584,
7.6120,-0.0989,-0.0470,1.0169,0.0056,-0.0196,0.0068,-0.0083,0.0035,-0.0001,25.2337,-1.5886,-33.3584,
7.6130,-0.0989,-0.0470,1.0169,0.0056,-0.0196,0.0068,-0.0083,0.0035,-0.0001,25.2855,-1.5276,-33.3528,
7.6360,-0.0982,-0.0465,1.0180,0.0056,-0.0196,0.0068,-0.0083,0.0035,-0.0001,25.2855,-1.5276,-33.3528,
7.6670,-0.0982,-0.0465,1.0180,-0.0011,-0.0250,0.0189,-0.0083,0.0035,-0.0001,25.2855,-1.5276,-33.3528,
7.6680,-0.0999,-0.0458,1.0196,-0.0011,-0.0250,0.0189,-0.0083,0.0035,-0.0001,25.2855,-1.5276,-33.3528,
7.6690,-0.0992,-0.0456,1.0218,-0.0011,-0.0250,0.0189,-0.0083,0.0035,-0.0001,25.2855,-1.5276,-33.3528,
7.6690,-0.0992,-0.0456,1.0218,-0.0011,-0.0250,0.0189,-0.0083,0.0203,0.0012,25.2855,-1.5276,-33.3528,
7.6800,-0.0992,-0.0456,1.0218,-0.0011,-0.0250,0.0189,-0.0083,0.0203,0.0012,25.3345,-1.5148,-33.3246,
7.7020,-0.0998,-0.0456,1.0217,-0.0011,-0.0250,0.0189,-0.0083,0.0203,0.0012,25.3345,-1.5148,-33.3246,
7.7030,-0.0998,-0.0456,1.0217,-0.0011,-0.0250,0.0189,-0.0028,0.0209,0.0005,25.3345,-1.5148,-33.3246,
7.7460,-0.0998,-0.0456,1.0217,-0.0011,-0.0250,0.0189,0.0021,0.0209,-0.0010,25.3345,-1.5148,-33.3246,
7.7470,-0.1007,-0.0453,1.0213,-0.0011,-0.0250,0.0189,0.0021,0.0209,-0.0010,25.3345,-1.5148,-33.3246,
7.7470,-0.1018,-0.0449,1.0216,-0.0011,-0.0250,0.0189,0.0021,0.0209,-0.0010,25.3345,-1.5148,-33.3246,
7.7480,-0.1018,-0.0449,1.0216,0.0053,-0.0106,0.0107,0.0021,0.0209,-0.0010,25.3345,-1.5148,-33.3246,
7.7480,-0.1020,-0.0463,1.0233,0.0053,-0.0106,0.0107,0.0021,0.0209,-0.0010,25.3345,-1.5148,-33.3246,
7.7490,-0.1020,-0.0463,1.0233,0.0053,-0.0106,0.0107,0.0021,0.0209,-0.0010,25.4602,-1.4300,-33.2892,
7.7690,-0.1009,-0.0478,1.0283,0.0053,-0.0106,0.0107,0.0021,0.0209,-0.0010,25.4602,-1.4300,-33.2892,
7.7700,-0.1009,-0.0478,1.0283,0.0053,-0.0106,0.0107,0.0009,0.0447,-0.0001,25.4602,-1.4300,-33.2892,
7.8030,-0.1047,-0.0481,1.0352,0.0053,-0.0106,0.0107,0.0009,0.0447,-0.0001,25.4602,-1.4300,-33.2892,
7.8050,-0.1047,-0.0481,1.0352,0.0053,-0.0106,0.0107,0.0079,0.0976,-0.0019,25.4602,-1.4300,-33.2892,
7.8060,-0.1084,-0.0489,1.0427,0.0053,-0.0106,0.0107,0.0079,0.0976,-0.0019,25.4602,-1.4300,-33.2892,
7.8060,-0.1084,-0.0489,1.0427,0.0354,-0.0071,0.0345,0.0079,0.0976,-0.0019,25.4602,-1.4300,-33.2892,
7.8140,-0.1084,-0.0489,1.0427,0.0354,-0.0071,0.0345,0.0079,0.0976,-0.0019,25.5568,-1.4232,-33.2084,
7.8350,-0.1085,-0.0494,1.0395,0.0354,-0.0071,0.0345,0.0079,0.0976,-0.0019,25.5568,-1.4232,-33.2084,
7.8800,-0.1085,-0.0494,1.0395,0.0354,-0.0071,0.0345,0.0253,0.1022,0.0024,25.5568,-1.4232,-33.2084,
7.8810,-0.1085,-0.0494,1.0395,0.0485,-0.0456,0.1399,0.0253,0.1022,0.0024,25.5568,-1.4232,-33.2084,
7.8820,-0.1085,-0.0494,1.0395,0.0485,-0.0456,0.1399,0.0253,0.1022,0.0024,25.6686,-1.3791,-33.2017,
7.8820,-0.1052,-0.0487,1.0317,0.0485,-0.0456,0.1399,0.0253,0.1022,0.0024,25.6686,-1.3791,-33.2017,
7.8830,-0.1046,-0.0443,1.0283,0.0485,-0.0456,0.1399,0.0253,0.1022,0.0024,25.6686,-1.3791,-33.2017,
7.8830,-0.1051,-0.0410,1.0288,0.0485,-0.0456,0.1399,0.0253,0.1022,0.0024,25.6686,-1.3791,-33.2017,
7.9020,-0.1097,-0.0416,1.0131,0.0485,-0.0456,0.1399,0.0253,0.1022,0.0024,25.6686,-1.3791,-33.2017,
7.9030,-0.1097,-0.0416,1.0131,0.0485,-0.0456,0.1399,0.0388,0.0243,-0.0010,25.6686,-1.3791,-33.2017,
7.9400,-0.1156,-0.0419,0.9947,0.0485,-0.0456,0.1399,0.0388,0.0243,-0.0010,25.6686,-1.3791,-33.2017,
7.9410,-0.1156,-0.0419,0.9947,0.0485,-0.0456,0.1399,0.0714,-0.0808,-0.0150,25.6686,-1.3791,-33.2017,
7.9410,-0.1156,-0.0419,0.9947,-0.0110,-0.0666,0.1080,0.0714,-0.0808,-0.0150,25.6686,-1.3791,-33.2017,
7.9420,-0.1170,-0.0413,0.9943,-0.0110,-0.0666,0.1080,0.0714,-0.0808,-0.0150,25.6686,-1.3791,-33.2017,
7.9470,-0.1170,-0.0413,0.9943,-0.0110,-0.0666,0.1080,0.0714,-0.0808,-0.0150,25.7166,-1.3749,-33.1355,
7.9680,-0.1148,-0.0380,1.0082,-0.0110,-0.0666,0.1080,0.0714,-0.0808,-0.0150,25.7166,-1.3749,-33.1355,
7.9690,-0.1148,-0.0380,1.0082,-0.0110,-0.0666,0.1080,0.0409,0.0078,-0.0150,25.7166,-1.3749,-33.1355,
8.0140,-0.1146,-0.0359,1.0300,-0.0110,-0.0666,0.1080,0.0409,0.0078,-0.0150,25.7166,-1.3749,-33.1355,
8.0150,-0.1127,-0.0372,1.0465,-0.0110,-0.0666,0.1080,0.0409,0.0078,-0.0150,25.7166,-1.3749,-33.1355,
8.0150,-0.1127,-0.0372,1.0465,-0.0110,-0.0666,0.1080,-0.0052,0.1999,-0.0034,25.7166,-1.3749,-33.1355,
8.0160,-0.1127,-0.0372,1.0465,-0.0110,-0.0666,0.1080,-0.0052,0.1999,-0.0034,25.7247,-1.4198,-33.0224,
8.0170,-0.1127,-0.0372,1.0465,0.0252,-0.0176,-0.1361,-0.0052,0.1999,-0.0034,25.7247,-1.4198,-33.0224,
8.0360,-0.1124,-0.0414,1.0514,0.0252,-0.0176,-0.1361,-0.0052,0.1999,-0.0034,25.7247,-1.4198,-33.0224,
8.0770,-0.1119,-0.0424,1.0449,0.0252,-0.0176,-0.1361,-0.0052,0.1999,-0.0034,25.7247,-1.4198,-33.0224,
8.0790,-0.1142,-0.0405,1.0343,0.0252,-0.0176,-0.1361,-0.0052,0.1999,-0.0034,25.7247,-1.4198,-33.0224,
8.0800,-0.1157,-0.0367,1.0236,0.0252,-0.0176,-0.1361,-0.0052,0.1999,-0.0034,25.7247,-1.4198,-33.0224,
8.0800,-0.1157,-0.0367,1.0236,0.0252,-0.0176,-0.1361,0.0256,0.0857,-0.0049,25.7247,-1.4198,-33.0224,
8.0810,-0.1157,-0.0367,1.0236,0.0252,-0.0176,-0.1361,0.0849,-0.0686,-0.0193,25.7247,-1.4198,-33.0224,
8.0810,-0.1157,-0.0367,1.0236,0.0048,-0.0175,0.1117,0.0849,-0.0686,-0.0193,25.7247,-1.4198,-33.0224,
8.0820,-0.1157,-0.0367,1.0236,0.0048,-0.0175,0.1117,0.0849,-0.0686,-0.0193,25.7705,-1.4655,-32.9851,
8.1020,-0.1173,-0.0347,1.0141,0.0048,-0.0175,0.1117,0.0849,-0.0686,-0.0193,25.7705,-1.4655,-32.9851,
8.1490,-0.1160,-0.0316,1.0102,0.0048,-0.0175,0.1117,0.0849,-0.0686,-0.0193,25.7705,-1.4655,-32.9851,
8.1500,-0.1160,-0.0316,1.0102,0.0048,-0.0175,0.1117,0.1078,-0.0735,-0.0251,25.7705,-1.4655,-32.9851,
8.1510,-0.1147,-0.0300,1.0158,0.0048,-0.0175,0.1117,0.1078,-0.0735,-0.0251,25.7705,-1.4655,-32.9851,
8.1520,-0.1147,-0.0300,1.0158,0.0048,-0.0175,0.1117,0.1078,-0.0735,-0.0251,25.7885,-1.5594,-32.8876,
8.1540,-0.1147,-0.0300,1.0158,-0.0130,-0.0988,0.1375,0.1078,-0.0735,-0.0251,25.7885,-1.5594,-32.8876,
8.1550,-0.1171,-0.0289,1.0236,-0.0130,-0.0988,0.1375,0.1078,-0.0735,-0.0251,25.7885,-1.5594,-32.8876,
8.1680,-0.1171,-0.0289,1.0236,-0.0130,-0.0988,0.1375,0.0846,0.0319,-0.0227,25.7885,-1.5594,-32.8876,
8.2140,-0.1171,-0.0289,1.0236,-0.0440,-0.0527,-0.0710,0.0846,0.0319,-0.0227,25.7885,-1.5594,-32.8876,
8.2160,-0.1200,-0.0254,1.0258,-0.0440,-0.0527,-0.0710,0.0846,0.0319,-0.0227,25.7885,-1.5594,-32.8876,
8.2160,-0.1200,-0.0254,1.0258,-0.0440,-0.0527,-0.0710,0.0690,0.0078,-0.0303,25.7885,-1.5594,-32.8876,
8.2170,-0.1222,-0.0239,1.0233,-0.0440,-0.0527,-0.0710,0.0690,0.0078,-0.0303,25.7885,-1.5594,-32.8876,
8.2170,-0.1207,-0.0244,1.0159,-0.0440,-0.0527,-0.0710,0.0690,0.0078,-0.0303,25.7885,-1.5594,-32.8876,
8.2170,-0.1207,-0.0244,1.0159,-0.0440,-0.0527,-0.0710,0.0690,0.0078,-0.0303,25.8801,-1.6402,-32.7866,
8.2360,-0.1207,-0.0244,1.0159,-0.0440,-0.0527,-0.0710,0.0705,-0.1318,-0.0358,25.8801,-1.6402,-32.7866,
8.2380,-0.1168,-0.0232,1.0102,-0.0440,-0.0527,-0.0710,0.0705,-0.1318,-0.0358,25.8801,-1.6402,-32.7866,
8.2810,-0.1168,-0.0232,1.0102,-0.0440,-0.0527,-0.0710,0.0858,-0.1516,-0.0300,25.8801,-1.6402,-32.7866,
8.2830,-0.1168,-0.0232,1.0102,-0.0440,-0.0527,-0.0710,0.0858,-0.1516,-0.0300,25.9586,-1.7747,-32.8179,
8.2840,-0.1105,-0.0218,1.0073,-0.0440,-0.0527,-0.0710,0.0858,-0.1516,-0.0300,25.9586,-1.7747,-32.8179,
8.2840,-0.1055,-0.0218,1.0041,-0.0440,-0.0527,-0.0710,0.0858,-0.1516,-0.0300,25.9586,-1.7747,-32.8179,
8.2910,-0.1055,-0.0218,1.0041,-0.1683,-0.0383,-0.0079,0.0858,-0.1516,-0.0300,25.9586,-1.7747,-32.8179,
8.3020,-0.1009,-0.0215,1.0041,-0.1683,-0.0383,-0.0079,0.0858,-0.1516,-0.0300,25.9586,-1.7747,-32.8179,
8.3490,-0.1009,-0.0215,1.0041,-0.1683,-0.0383,-0.0079,0.0702,-0.0783,-0.0166,25.9586,-1.7747,-32.8179,
8.3510,-0.0986,-0.0213,1.0081,-0.1683,-0.0383,-0.0079,0.0702,-0.0783,-0.0166,25.9586,-1.7747,-32.8179,
8.3520,-0.0975,-0.0194,1.0155,-0.1683,-0.0383,-0.0079,0.0702,-0.0783,-0.0166,25.9586,-1.7747,-32.8179,
8.3520,-0.0975,-0.0194,1.0155,-0.1683,-0.0383,-0.0079,0.0702,-0.0783,-0.0166,25.9418,-1.8746,-32.8632,
8.3530,-0.0992,-0.0178,1.0241,-0.1683,-0.0383,-0.0079,0.0702,-0.0783,-0.0166,25.9418,-1.8746,-32.8632,
8.3540,-0.0992,-0.0178,1.0241,-0.1683,-0.0383,-0.0079,0.0372,-0.0499,-0.0181,25.9418,-1.8746,-32.8632,
8.3540,-0.0992,-0.0178,1.0241,-0.0901,-0.0368,-0.1464,0.0372,-0.0499,-0.0181,25.9418,-1.8746,-32.8632,
8.3690,-0.0985,-0.0189,1.0307,-0.0901,-0.0368,-0.1464,0.0372,-0.0499,-0.0181,25.9418,-1.8746,-32.8632,
8.4150,-0.0985,-0.0189,1.0307,-0.0901,-0.0368,-0.1464,0.0372,-0.0499,-0.0181,25.8620,-2.0055,-32.8742,
8.4170,-0.0985,-0.0189,1.0307,-0.0901,-0.0368,-0.1464,0.0336,-0.0780,-0.0260,25.8620,-2.0055,-32.8742,
8.4170,-0.0970,-0.0185,1.0317,-0.0901,-0.0368,-0.1464,0.0336,-0.0780,-0.0260,25.8620,-2.0055,-32.8742,
8.4180,-0.0952,-0.0161,1.0285,-0.0901,-0.0368,-0.1464,0.0336,-0.0780,-0.0260,25.8620,-2.0055,-32.8742,
8.4280,-0.0952,-0.0161,1.0285,-0.0901,-0.0368,-0.1464,0.0397,-0.1193,-0.0352,25.8620,-2.0055,-32.8742,
8.4290,-0.0941,-0.0122,1.0230,-0.0901,-0.0368,-0.1464,0.0397,-0.1193,-0.0352,25.8620,-2.0055,-32.8742,
8.4290,-0.0941,-0.0122,1.0230,-0.0406,-0.0327,-0.0689,0.0397,-0.1193,-0.0352,25.8620,-2.0055,-32.8742,
8.4810,-0.0938,-0.0080,1.0179,-0.0406,-0.0327,-0.0689,0.0397,-0.1193,-0.0352,25.8620,-2.0055,-32.8742,
8.4820,-0.0938,-0.0080,1.0179,-0.0406,-0.0327,-0.0689,0.0452,-0.1657,-0.0364,25.8620,-2.0055,-32.8742,
8.4830,-0.0938,-0.0080,1.0179,-0.0406,-0.0327,-0.0689,0.0452,-0.1657,-0.0364,25.8077,-2.1271,-32.9350,
8.4840,-0.0902,-0.0078,1.0148,-0.0406,-0.0327,-0.0689,0.0452,-0.1657,-0.0364,25.8077,-2.1271,-32.9350,
8.4870,-0.0902,-0.0078,1.0148,-0.1120,-0.0309,0.0627,0.0452,-0.1657,-0.0364,25.8077,-2.1271,-32.9350,
8.4880,-0.0856,-0.0091,1.0145,-0.1120,-0.0309,0.0627,0.0452,-0.1657,-0.0364,25.8077,-2.1271,-32.9350,
8.5480,-0.0856,-0.0091,1.0145,-0.1120,-0.0309,0.0627,0.0418,-0.1239,-0.0202,25.8077,-2.1271,-32.9350,
8.5500,-0.0803,-0.0110,1.0153,-0.1120,-0.0309,0.0627,0.0418,-0.1239,-0.0202,25.8077,-2.1271,-32.9350,
8.5510,-0.0771,-0.0105,1.0124,-0.1120,-0.0309,0.0627,0.0418,-0.1239,-0.0202,25.8077,-2.1271,-32.9350,
8.5520,-0.0771,-0.0105,1.0124,-0.1120,-0.0309,0.0627,0.0375,-0.1529,-0.0138,25.8077,-2.1271,-32.9350,
8.5520,-0.0737,-0.0084,1.0076,-0.1120,-0.0309,0.0627,0.0375,-0.1529,-0.0138,25.8077,-2.1271,-32.9350,
8.5530,-0.0737,-0.0084,1.0076,-0.1120,-0.0309,0.0627,0.0375,-0.1529,-0.0138,25.6449,-2.2568,-33.1030,
8.5650,-0.0737,-0.0084,1.0076,-0.1372,0.0229,-0.0651,0.0375,-0.1529,-0.0138,25.6449,-2.2568,-33.1030,
8.5660,-0.0716,-0.0092,1.0091,-0.1372,0.0229,-0.0651,0.0375,-0.1529,-0.0138,25.6449,-2.2568,-33.1030,
8.6150,-0.0701,-0.0121,1.0141,-0.1372,0.0229,-0.0651,0.0375,-0.1529,-0.0138,25.6449,-2.2568,-33.1030,
8.6160,-0.0701,-0.0121,1.0141,-0.1372,0.0229,-0.0651,0.0412,-0.1874,-0.0126,25.6449,-2.2568,-33.1030,
8.6170,-0.0633,-0.0150,1.0249,-0.1372,0.0229,-0.0651,0.0412,-0.1874,-0.0126,25.6449,-2.2568,-33.1030,
8.6170,-0.0633,-0.0150,1.0249,-0.1372,0.0229,-0.0651,0.0412,-0.1874,-0.0126,25.4599,-2.3483,-33.2693,
8.6220,-0.0635,-0.0122,1.0324,-0.1372,0.0229,-0.0651,0.0412,-0.1874,-0.0126,25.4599,-2.3483,-33.2693,
8.6230,-0.0635,-0.0122,1.0324,-0.0481,-0.0114,-0.1081,0.0412,-0.1874,-0.0126,25.4599,-2.3483,-33.2693,
8.6230,-0.0635,-0.0122,1.0324,-0.0481,-0.0114,-0.1081,0.0360,-0.0072,-0.0007,25.4599,-2.3483,-33.2693,
8.6820,-0.0656,-0.0079,1.0339,-0.0481,-0.0114,-0.1081,0.0360,-0.0072,-0.0007,25.4599,-2.3483,-33.2693,
8.6840,-0.0649,-0.0051,1.0323,-0.0481,-0.0114,-0.1081,0.0360,-0.0072,-0.0007,25.4599,-2.3483,-33.2693,
8.6850,-0.0649,-0.0051,1.0323,-0.0481,-0.0114,-0.1081,0.0326,-0.1052,-0.0114,25.4599,-2.3483,-33.2693,
8.6850,-0.0649,-0.0051,1.0323,-0.0481,-0.0114,-0.1081,0.0326,-0.1052,-0.0114,25.2134,-2.4304,-33.3601,
8.7010,-0.0657,-0.0028,1.0124,-0.0481,-0.0114,-0.1081,0.0326,-0.1052,-0.0114,25.2134,-2.4304,-33.3601,
8.7020,-0.0656,-0.0047,0.9921,-0.0481,-0.0114,-0.1081,0.0326,-0.1052,-0.0114,25.2134,-2.4304,-33.3601,
8.7030,-0.0656,-0.0047,0.9921,-0.0535,-0.0603,-0.0089,0.0326,-0.1052,-0.0114,25.2134,-2.4304,-33.3601,
8.7040,-0.0656,-0.0047,0.9921,-0.0535,-0.0603,-0.0089,0.0574,-0.2231,-0.0205,25.2134,-2.4304,-33.3601,
8.7500,-0.0557,-0.0040,0.9883,-0.0535,-0.0603,-0.0089,0.0574,-0.2231,-0.0205,25.2134,-2.4304,-33.3601,
8.7520,-0.0436,-0.0024,0.9940,-0.0535,-0.0603,-0.0089,0.0574,-0.2231,-0.0205,25.2134,-2.4304,-33.3601,
8.7530,-0.0436,-0.0024,0.9940,-0.0535,-0.0603,-0.0089,0.0574,-0.2231,-0.0205,24.8463,-2.5214,-33.5713,
8.7540,-0.0436,-0.0024,0.9940,-0.0535,-0.0603,-0.0089,0.0653,-0.1067,0.0015,24.8463,-2.5214,-33.5713,
8.7600,-0.0365,-0.0014,0.9990,-0.0535,-0.0603,-0.0089,0.0653,-0.1067,0.0015,24.8463,-2.5214,-33.5713,
8.7600,-0.0365,-0.0014,0.9990,-0.0987,-0.0239,-0.0126,0.0653,-0.1067,0.0015,24.8463,-2.5214,-33.5713,
8.8150,-0.0365,-0.0014,0.9990,-0.0987,-0.0239,-0.0126,0.0305,-0.0133,0.0027,24.8463,-2.5214,-33.5713,
8.8170,-0.0365,-0.0014,0.9990,-0.0987,-0.0239,-0.0126,0.0305,-0.0133,0.0027,24.4658,-2.6098,-33.6801,
8.8180,-0.0380,0.0024,1.0063,-0.0987,-0.0239,-0.0126,0.0305,-0.0133,0.0027,24.4658,-2.6098,-33.6801,
8.8190,-0.0443,0.0011,1.0134,-0.0987,-0.0239,-0.0126,0.0305,-0.0133,0.0027,24.4658,-2.6098,-33.6801,
8.8370,-0.0443,0.0011,1.0134,-0.0987,-0.0239,-0.0126,-0.0217,-0.0078,-0.0019,24.4658,-2.6098,-33.6801,
8.8390,-0.0468,0.0000,1.0213,-0.0987,-0.0239,-0.0126,-0.0217,-0.0078,-0.0019,24.4658,-2.6098,-33.6801,
8.8400,-0.0468,0.0000,1.0213,0.0605,0.0047,-0.2616,-0.0217,-0.0078,-0.0019,24.4658,-2.6098,-33.6801,
8.8810,-0.0468,0.0000,1.0213,0.0605,0.0047,-0.2616,-0.0367,-0.0383,-0.0037,24.4658,-2.6098,-33.6801,
8.8820,-0.0468,0.0000,1.0213,0.0605,0.0047,-0.2616,-0.0367,-0.0383,-0.0037,24.1726,-2.6657,-33.8095,
8.8830,-0.0489,-0.0012,1.0253,0.0605,0.0047,-0.2616,-0.0367,-0.0383,-0.0037,24.1726,-2.6657,-33.8095,
8.8840,-0.0491,0.0016,1.0179,0.0605,0.0047,-0.2616,-0.0367,-0.0383,-0.0037,24.1726,-2.6657,-33.8095,
8.8840,-0.0470,0.0015,1.0013,0.0605,0.0047,-0.2616,-0.0367,-0.0383,-0.0037,24.1726,-2.6657,-33.8095,
8.8960,-0.0445,-0.0018,0.9838,0.0605,0.0047,-0.2616,-0.0367,-0.0383,-0.0037,24.1726,-2.6657,-33.8095,
8.8980,-0.0445,-0.0018,0.9838,0.0362,0.0502,-0.0406,-0.0367,-0.0383,-0.0037,24.1726,-2.6657,-33.8095,
8.8980,-0.0445,-0.0018,0.9838,0.0362,0.0502,-0.0406,-0.0077,-0.1202,-0.0071,24.1726,-2.6657,-33.8095,
8.9480,-0.0445,-0.0018,0.9838,0.0362,0.0502,-0.0406,0.0113,-0.0121,0.0021,24.1726,-2.6657,-33.8095,
8.9490,-0.0385,-0.0040,0.9794,0.0362,0.0502,-0.0406,0.0113,-0.0121,0.0021,24.1726,-2.6657,-33.8095,
8.9500,-0.0385,-0.0040,0.9794,0.0362,0.0502,-0.0406,0.0113,-0.0121,0.0021,23.8551,-2.7232,-33.9526,
8.9510,-0.0343,-0.0023,0.9880,0.0362,0.0502,-0.0406,0.0113,-0.0121,0.0021,23.8551,-2.7232,-33.9526,
8.9700,-0.0424,-0.0012,1.0006,0.0362,0.0502,-0.0406,0.0113,-0.0121,0.0021,23.8551,-2.7232,-33.9526,
8.9780,-0.0506,-0.0027,1.0093,0.0362,0.0502,-0.0406,0.0113,-0.0121,0.0021,23.8551,-2.7232,-33.9526,
8.9800,-0.0506,-0.0027,1.0093,0.0182,0.0348,-0.1312,0.0113,-0.0121,0.0021,23.8551,-2.7232,-33.9526,
9.0140,-0.0506,-0.0027,1.0093,0.0182,0.0348,-0.1312,-0.0040,0.0646,-0.0001,23.8551,-2.7232,-33.9526,
9.0150,-0.0498,-0.0046,1.0172,0.0182,0.0348,-0.1312,-0.0040,0.0646,-0.0001,23.8551,-2.7232,-33.9526,
9.0160,-0.0479,-0.0056,1.0227,0.0182,0.0348,-0.1312,-0.0040,0.0646,-0.0001,23.8551,-2.7232,-33.9526,
9.0170,-0.0479,-0.0056,1.0227,0.0182,0.0348,-0.1312,-0.0382,0.0356,-0.0019,23.8551,-2.7232,-33.9526,
9.0170,-0.0479,-0.0056,1.0227,0.0182,0.0348,-0.1312,-0.0382,0.0356,-0.0019,23.5869,-2.7465,-34.0149,
9.0330,-0.0479,-0.0056,1.0227,0.1055,0.0340,-0.2242,-0.0382,0.0356,-0.0019,23.5869,-2.7465,-34.0149,
9.0350,-0.0467,-0.0078,1.0258,0.1055,0.0340,-0.2242,-0.0382,0.0356,-0.0019,23.5869,-2.7465,-34.0149,
9.0810,-0.0467,-0.0078,1.0258,0.1055,0.0340,-0.2242,-0.0706,0.0701,0.0048,23.5869,-2.7465,-34.0149,
9.0820,-0.0467,-0.0078,1.0258,0.1055,0.0340,-0.2242,-0.0706,0.0701,0.0048,23.4741,-2.8103,-34.0228,
9.0830,-0.0436,-0.0094,1.0291,0.1055,0.0340,-0.2242,-0.0706,0.0701,0.0048,23.4741,-2.8103,-34.0228,
9.0830,-0.0440,-0.0095,1.0321,0.1055,0.0340,-0.2242,-0.0706,0.0701,0.0048,23.4741,-2.8103,-34.0228,
9.1020,-0.0440,-0.0095,1.0321,0.1055,0.0340,-0.2242,-0.0578,0.0496,0.0057,23.4741,-2.8103,-34.0228,
9.1040,-0.0442,-0.0099,1.0301,0.1055,0.0340,-0.2242,-0.0578,0.0496,0.0057,23.4741,-2.8103,-34.0228,
9.1110,-0.0442,-0.0099,1.0301,0.0537,0.0381,0.0511,-0.0578,0.0496,0.0057,23.4741,-2.8103,-34.0228,
9.1480,-0.0442,-0.0099,1.0301,0.0537,0.0381,0.0511,-0.0168,0.0811,0.0045,23.4741,-2.8103,-34.0228,
9.1490,-0.0442,-0.0099,1.0301,0.0537,0.0381,0.0511,-0.0168,0.0811,0.0045,23.3914,-2.7875,-34.1142,
9.1500,-0.0470,-0.0118,1.0250,0.0537,0.0381,0.0511,-0.0168,0.0811,0.0045,23.3914,-2.7875,-34.1142,
9.1500,-0.0536,-0.0127,1.0217,0.0537,0.0381,0.0511,-0.0168,0.0811,0.0045,23.3914,-2.7875,-34.1142,
9.1720,-0.0584,-0.0135,1.0210,0.0537,0.0381,0.0511,-0.0168,0.0811,0.0045,23.3914,-2.7875,-34.1142,
9.1730,-0.0584,-0.0135,1.0210,0.0537,0.0381,0.0511,-0.0294,0.1067,0.0094,23.3914,-2.7875,-34.1142,
9.1740,-0.0627,-0.0122,1.0196,0.0537,0.0381,0.0511,-0.0294,0.1067,0.0094,23.3914,-2.7875,-34.1142,
9.1760,-0.0627,-0.0122,1.0196,0.1465,0.0094,0.1308,-0.0294,0.1067,0.0094,23.3914,-2.7875,-34.1142,
9.2160,-0.0618,-0.0085,1.0228,0.1465,0.0094,0.1308,-0.0294,0.1067,0.0094,23.3914,-2.7875,-34.1142,
9.2170,-0.0614,-0.0055,1.0269,0.1465,0.0094,0.1308,-0.0294,0.1067,0.0094,23.3914,-2.7875,-34.1142,
9.2170,-0.0614,-0.0055,1.0269,0.1465,0.0094,0.1308,-0.0294,0.1067,0.0094,23.4197,-2.7185,-34.1346,
9.2180,-0.0614,-0.0055,1.0269,0.1465,0.0094,0.1308,-0.0886,0.0597,0.0054,23.4197,-2.7185,-34.1346,
9.2360,-0.0644,-0.0049,1.0305,0.1465,0.0094,0.1308,-0.0886,0.0597,0.0054,23.4197,-2.7185,-34.1346,
9.2470,-0.0638,-0.0080,1.0321,0.1465,0.0094,0.1308,-0.0886,0.0597,0.0054,23.4197,-2.7185,-34.1346,
9.2490,-0.0638,-0.0080,1.0321,0.0462,0.0436,0.0441,-0.0886,0.0597,0.0054,23.4197,-2.7185,-34.1346,
9.2500,-0.0638,-0.0080,1.0321,0.0462,0.0436,0.0441,-0.1060,0.0182,-0.0025,23.4197,-2.7185,-34.1346,
9.2810,-0.0638,-0.0080,1.0321,0.0462,0.0436,0.0441,-0.1060,0.0182,-0.0025,23.4861,-2.6074,-34.1125,
9.2830,-0.0630,-0.0150,1.0300,0.0462,0.0436,0.0441,-0.1060,0.0182,-0.0025,23.4861,-2.6074,-34.1125,
9.3020,-0.0622,-0.0210,1.0253,0.0462,0.0436,0.0441,-0.1060,0.0182,-0.0025,23.4861,-2.6074,-34.1125,
9.3040,-0.0622,-0.0210,1.0253,0.0462,0.0436,0.0441,-0.0599,0.0038,0.0067,23.4861,-2.6074,-34.1125,
9.3050,-0.0636,-0.0273,1.0199,0.0462,0.0436,0.0441,-0.0599,0.0038,0.0067,23.4861,-2.6074,-34.1125,
9.3050,-0.0636,-0.0273,1.0199,-0.0037,0.1262,0.0944,-0.0599,0.0038,0.0067,23.4861,-2.6074,-34.1125,
9.3480,-0.0636,-0.0273,1.0199,-0.0037,0.1262,0.0944,-0.0599,0.0038,0.0067,23.5522,-2.5065,-34.1039,
9.3500,-0.0636,-0.0273,1.0199,-0.0037,0.1262,0.0944,-0.0254,0.0499,0.0149,23.5522,-2.5065,-34.1039,
9.3510,-0.0581,-0.0316,1.0183,-0.0037,0.1262,0.0944,-0.0254,0.0499,0.0149,23.5522,-2.5065,-34.1039,
9.3520,-0.0600,-0.0295,1.0228,-0.0037,0.1262,0.0944,-0.0254,0.0499,0.0149,23.5522,-2.5065,-34.1039,
9.3700,-0.0633,-0.0243,1.0329,-0.0037,0.1262,0.0944,-0.0254,0.0499,0.0149,23.5522,-2.5065,-34.1039,
9.3710,-0.0633,-0.0243,1.0329,-0.0037,0.1262,0.0944,-0.0434,0.1318,0.0128,23.5522,-2.5065,-34.1039,
9.3850,-0.0633,-0.0243,1.0329,0.0637,0.0221,0.0774,-0.0434,0.1318,0.0128,23.5522,-2.5065,-34.1039,
9.4140,-0.0633,-0.0243,1.0329,0.0637,0.0221,0.0774,-0.0434,0.1318,0.0128,23.6512,-2.4612,-34.0462,
9.4160,-0.0689,-0.0243,1.0438,0.0637,0.0221,0.0774,-0.0434,0.1318,0.0128,23.6512,-2.4612,-34.0462,
9.4160,-0.0689,-0.0243,1.0438,0.0637,0.0221,0.0774,-0.0382,0.0710,0.0085,23.6512,-2.4612,-34.0462,
9.4170,-0.0766,-0.0243,1.0332,0.0637,0.0221,0.0774,-0.0382,0.0710,0.0085,23.6512,-2.4612,-34.0462,
9.4350,-0.0799,-0.0255,1.0152,0.0637,0.0221,0.0774,-0.0382,0.0710,0.0085,23.6512,-2.4612,-34.0462,
9.4440,-0.0799,-0.0255,1.0152,0.0637,0.0221,0.0774,-0.0220,-0.0664,-0.0053,23.6512,-2.4612,-34.0462,
9.4450,-0.0767,-0.0253,1.0064,0.0637,0.0221,0.0774,-0.0220,-0.0664,-0.0053,23.6512,-2.4612,-34.0462,
9.4460,-0.0767,-0.0253,1.0064,0.0618,-0.0376,0.0785,-0.0220,-0.0664,-0.0053,23.6512,-2.4612,-34.0462,
9.4810,-0.0767,-0.0253,1.0064,0.0618,-0.0376,0.0785,-0.0220,-0.0664,-0.0053,23.7895,-2.3436,-33.9185,
9.4830,-0.0713,-0.0260,1.0092,0.0618,-0.0376,0.0785,-0.0220,-0.0664,-0.0053,23.7895,-2.3436,-33.9185,
9.5030,-0.0700,-0.0270,1.0162,0.0618,-0.0376,0.0785,-0.0220,-0.0664,-0.0053,23.7895,-2.3436,-33.9185,
9.5050,-0.0700,-0.0270,1.0162,0.0618,-0.0376,0.0785,-0.0495,0.0457,0.0012,23.7895,-2.3436,-33.9185,
9.5060,-0.0669,-0.0296,1.0217,0.0618,-0.0376,0.0785,-0.0495,0.0457,0.0012,23.7895,-2.3436,-33.9185,
9.5210,-0.0669,-0.0296,1.0217,-0.0397,0.0258,0.0278,-0.0495,0.0457,0.0012,23.7895,-2.3436,-33.9185,
9.5470,-0.0669,-0.0296,1.0217,-0.0397,0.0258,0.0278,-0.0495,0.0457,0.0012,23.9786,-2.2177,-33.9040,
9.5490,-0.0639,-0.0322,1.0251,-0.0397,0.0258,0.0278,-0.0495,0.0457,0.0012,23.9786,-2.2177,-33.9040,
9.5500,-0.0665,-0.0337,1.0319,-0.0397,0.0258,0.0278,-0.0495,0.0457,0.0012,23.9786,-2.2177,-33.9040,
9.5500,-0.0665,-0.0337,1.0319,-0.0397,0.0258,0.0278,-0.0651,0.0884,0.0161,23.9786,-2.2177,-33.9040,
9.5690,-0.0738,-0.0331,1.0370,-0.0397,0.0258,0.0278,-0.0651,0.0884,0.0161,23.9786,-2.2177,-33.9040,
9.5710,-0.0738,-0.0331,1.0370,-0.0397,0.0258,0.0278,-0.0550,0.0735,0.0060,23.9786,-2.2177,-33.9040,
9.5800,-0.0738,-0.0331,1.0370,0.0788,0.0244,-0.0169,-0.0550,0.0735,0.0060,23.9786,-2.2177,-33.9040,
9.5820,-0.0815,-0.0306,1.0360,0.0788,0.0244,-0.0169,-0.0550,0.0735,0.0060,23.9786,-2.2177,-33.9040,
9.6130,-0.0858,-0.0311,1.0313,0.0788,0.0244,-0.0169,-0.0550,0.0735,0.0060,23.9786,-2.2177,-33.9040,
9.6150,-0.0858,-0.0311,1.0313,0.0788,0.0244,-0.0169,-0.0550,0.0735,0.0060,24.1823,-2.0416,-33.8731,
9.6160,-0.0858,-0.0311,1.0313,0.0788,0.0244,-0.0169,-0.0196,0.0505,-0.0034,24.1823,-2.0416,-33.8731,
9.6360,-0.0855,-0.0318,1.0238,0.0788,0.0244,-0.0169,-0.0196,0.0505,-0.0034,24.1823,-2.0416,-33.8731,
9.6570,-0.0855,-0.0318,1.0238,0.0788,0.0244,-0.0169,-0.0046,0.0160,0.0027,24.1823,-2.0416,-33.8731,
9.6590,-0.0855,-0.0318,1.0238,0.0512,-0.0120,0.1343,-0.0046,0.0160,0.0027,24.1823,-2.0416,-33.8731,
9.6600,-0.0825,-0.0347,1.0186,0.0512,-0.0120,0.1343,-0.0046,0.0160,0.0027,24.1823,-2.0416,-33.8731,
9.6810,-0.0825,-0.0347,1.0186,0.0512,-0.0120,0.1343,-0.0150,0.0451,0.0057,24.1823,-2.0416,-33.8731,
9.6820,-0.0778,-0.0354,1.0167,0.0512,-0.0120,0.1343,-0.0150,0.0451,0.0057,24.1823,-2.0416,-33.8731,
9.6830,-0.0766,-0.0337,1.0197,0.0512,-0.0120,0.1343,-0.0150,0.0451,0.0057,24.1823,-2.0416,-33.8731,
9.6830,-0.0766,-0.0337,1.0197,0.0512,-0.0120,0.1343,-0.0150,0.0451,0.0057,24.4046,-1.9501,-33.7568,
9.7020,-0.0803,-0.0349,1.0191,0.0512,-0.0120,0.1343,-0.0150,0.0451,0.0057,24.4046,-1.9501,-33.7568,
9.7160,-0.0803,-0.0349,1.0191,-0.0289,-0.0026,0.0315,-0.0150,0.0451,0.0057,24.4046,-1.9501,-33.7568,
9.7170,-0.0803,-0.0349,1.0191,-0.0289,-0.0026,0.0315,-0.0236,0.0249,0.0048,24.4046,-1.9501,-33.7568,
9.7180,-0.0836,-0.0358,1.0202,-0.0289,-0.0026,0.0315,-0.0236,0.0249,0.0048,24.4046,-1.9501,-33.7568,
9.7470,-0.0836,-0.0358,1.0202,-0.0289,-0.0026,0.0315,-0.0236,0.0249,0.0048,24.5293,-1.8850,-33.7227,
9.7490,-0.0827,-0.0353,1.0196,-0.0289,-0.0026,0.0315,-0.0236,0.0249,0.0048,24.5293,-1.8850,-33.7227,
9.7700,-0.0833,-0.0343,1.0185,-0.0289,-0.0026,0.0315,-0.0236,0.0249,0.0048,24.5293,-1.8850,-33.7227,
9.7710,-0.0833,-0.0343,1.0185,-0.0289,-0.0026,0.0315,-0.0178,0.0084,0.0005,24.5293,-1.8850,-33.7227,
9.7940,-0.0833,-0.0343,1.0185,0.0184,-0.0078,-0.0075,-0.0178,0.0084,0.0005,24.5293,-1.8850,-33.7227,
9.7960,-0.0827,-0.0331,1.0210,0.0184,-0.0078,-0.0075,-0.0178,0.0084,0.0005,24.5293,-1.8850,-33.7227,
9.7960,-0.0832,-0.0348,1.0227,0.0184,-0.0078,-0.0075,-0.0178,0.0084,0.0005,24.5293,-1.8850,-33.7227,
9.7990,-0.0832,-0.0348,1.0227,0.0184,-0.0078,-0.0075,-0.0171,0.0356,0.0018,24.5293,-1.8850,-33.7227,
9.8140,-0.0829,-0.0372,1.0221,0.0184,-0.0078,-0.0075,-0.0171,0.0356,0.0018,24.5293,-1.8850,-33.7227,
9.8150,-0.0829,-0.0372,1.0221,0.0184,-0.0078,-0.0075,-0.0171,0.0356,0.0018,24.6763,-1.8580,-33.6902,
9.8370,-0.0837,-0.0377,1.0222,0.0184,-0.0078,-0.0075,-0.0171,0.0356,0.0018,24.6763,-1.8580,-33.6902,
9.8380,-0.0837,-0.0377,1.0222,0.0184,-0.0078,-0.0075,-0.0129,0.0383,0.0070,24.6763,-1.8580,-33.6902,
9.8520,-0.0848,-0.0402,1.0218,0.0184,-0.0078,-0.0075,-0.0129,0.0383,0.0070,24.6763,-1.8580,-33.6902,
9.8540,-0.0848,-0.0402,1.0218,0.0125,0.0061,0.0024,-0.0129,0.0383,0.0070,24.6763,-1.8580,-33.6902,
9.8800,-0.0848,-0.0402,1.0218,0.0125,0.0061,0.0024,-0.0147,0.0325,0.0036,24.6763,-1.8580,-33.6902,
9.8820,-0.0848,-0.0402,1.0218,0.0125,0.0061,0.0024,-0.0147,0.0325,0.0036,24.8493,-1.7784,-33.5764,
9.8830,-0.0872,-0.0410,1.0214,0.0125,0.0061,0.0024,-0.0147,0.0325,0.0036,24.8493,-1.7784,-33.5764,
9.9020,-0.0888,-0.0414,1.0235,0.0125,0.0061,0.0024,-0.0147,0.0325,0.0036,24.8493,-1.7784,-33.5764,
9.9320,-0.0888,-0.0414,1.0235,0.0259,-0.0142,0.0230,-0.0147,0.0325,0.0036,24.8493,-1.7784,-33.5764,
9.9340,-0.0886,-0.0410,1.0240,0.0259,-0.0142,0.0230,-0.0147,0.0325,0.0036,24.8493,-1.7784,-33.5764,
9.9340,-0.0886,-0.0410,1.0240,0.0259,-0.0142,0.0230,-0.0220,0.0374,0.0057,24.8493,-1.7784,-33.5764,
9.9460,-0.0886,-0.0410,1.0240,0.0259,-0.0142,0.0230,-0.0220,0.0374,0.0057,25.0018,-1.6431,-33.5241,
9.9480,-0.0893,-0.0384,1.0255,0.0259,-0.0142,0.0230,-0.0220,0.0374,0.0057,25.0018,-1.6431,-33.5241,
9.9690,-0.0893,-0.0384,1.0255,0.0259,-0.0142,0.0230,-0.0202,0.0331,0.0042,25.0018,-1.6431,-33.5241,
9.9700,-0.0891,-0.0365,1.0251,0.0259,-0.0142,0.0230,-0.0202,0.0331,0.0042,25.0018,-1.6431,-33.5241,
9.9890,-0.0884,-0.0356,1.0211,0.0259,-0.0142,0.0230,-0.0202,0.0331,0.0042,25.0018,-1.6431,-33.5241,
9.9900,-0.0884,-0.0356,1.0211,-0.0109,-0.0311,0.0306,-0.0202,0.0331,0.0042,25.0018,-1.6431,-33.5241,
9.9900,-0.0884,-0.0356,1.0211,-0.0109,-0.0311,0.0306,-0.0092,-0.0069,0.0009,25.0018,-1.6431,-33.5241,
9.9910,-0.0869,-0.0359,1.0175,-0.0109,-0.0311,0.0306,-0.0092,-0.0069,0.0009,25.0018,-1.6431,-33.5241,
10.0140,-0.0869,-0.0359,1.0175,-0.0109,-0.0311,0.0306,-0.0092,-0.0069,0.0009,25.2002,-1.5759,-33.5258,
10.0150,-0.0876,-0.0380,1.0150,-0.0109,-0.0311,0.0306,-0.0092,-0.0069,0.0009,25.2002,-1.5759,-33.5258,
10.0350,-0.0886,-0.0400,1.0139,-0.0109,-0.0311,0.0306,-0.0092,-0.0069,0.0009,25.2002,-1.5759,-33.5258,
10.0360,-0.0886,-0.0400,1.0139,-0.0109,-0.0311,0.0306,-0.0071,-0.0038,0.0005,25.2002,-1.5759,-33.5258,
10.0670,-0.0886,-0.0405,1.0155,-0.0109,-0.0311,0.0306,-0.0071,-0.0038,0.0005,25.2002,-1.5759,-33.5258,
10.0680,-0.0892,-0.0414,1.0191,-0.0109,-0.0311,0.0306,-0.0071,-0.0038,0.0005,25.2002,-1.5759,-33.5258,
10.0690,-0.0892,-0.0414,1.0191,-0.0109,-0.0311,0.0306,-0.0162,0.0170,0.0045,25.2002,-1.5759,-33.5258,
10.0690,-0.0892,-0.0414,1.0191,-0.0078,0.0205,0.0161,-0.0162,0.0170,0.0045,25.2002,-1.5759,-33.5258,
10.0790,-0.0892,-0.0414,1.0191,-0.0078,0.0205,0.0161,-0.0162,0.0170,0.0045,25.2990,-1.5413,-33.4945,
10.1020,-0.0922,-0.0411,1.0239,-0.0078,0.0205,0.0161,-0.0162,0.0170,0.0045,25.2990,-1.5413,-33.4945,
10.1260,-0.0903,-0.0428,1.0250,-0.0078,0.0205,0.0161,-0.0162,0.0170,0.0045,25.2990,-1.5413,-33.4945,
10.1270,-0.0894,-0.0444,1.0271,-0.0078,0.0205,0.0161,-0.0162,0.0170,0.0045,25.2990,-1.5413,-33.4945,
10.1280,-0.0894,-0.0444,1.0271,-0.0078,0.0205,0.0161,-0.0150,0.0362,0.0051,25.2990,-1.5413,-33.4945,
10.1280,-0.0894,-0.0444,1.0271,0.0177,-0.0038,-0.0423,-0.0150,0.0362,0.0051,25.2990,-1.5413,-33.4945,
10.1470,-0.0921,-0.0428,1.0306,0.0177,-0.0038,-0.0423,-0.0150,0.0362,0.0051,25.2990,-1.5413,-33.4945,
10.1480,-0.0921,-0.0428,1.0306,0.0177,-0.0038,-0.0423,-0.0150,0.0362,0.0051,25.3590,-1.5472,-33.4542,
10.1490,-0.0921,-0.0428,1.0306,0.0177,-0.0038,-0.0423,-0.0144,0.0454,0.0067,25.3590,-1.5472,-33.4542,
10.1680,-0.0931,-0.0413,1.0360,0.0177,-0.0038,-0.0423,-0.0144,0.0454,0.0067,25.3590,-1.5472,-33.4542,
10.2040,-0.0938,-0.0411,1.0181,0.0177,-0.0038,-0.0423,-0.0144,0.0454,0.0067,25.3590,-1.5472,-33.4542,
10.2060,-0.0938,-0.0411,1.0181,0.0177,-0.0038,-0.0423,0.0116,-0.0163,0.0036,25.3590,-1.5472,-33.4542,
10.2060,-0.0938,-0.0411,1.0181,-0.0111,-0.0320,0.0445,0.0116,-0.0163,0.0036,25.3590,-1.5472,-33.4542,
10.2130,-0.0945,-0.0409,1.0018,-0.0111,-0.0320,0.0445,0.0116,-0.0163,0.0036,25.3590,-1.5472,-33.4542,
10.2140,-0.0945,-0.0409,1.0018,-0.0111,-0.0320,0.0445,0.0116,-0.0163,0.0036,25.4100,-1.4951,-33.4235,
10.2350,-0.0937,-0.0406,0.9976,-0.0111,-0.0320,0.0445,0.0116,-0.0163,0.0036,25.4100,-1.4951,-33.4235,
10.2370,-0.0937,-0.0406,0.9976,-0.0111,-0.0320,0.0445,0.0067,-0.0820,-0.0016,25.4100,-1.4951,-33.4235,
10.2630,-0.0937,-0.0406,0.9976,-0.0111,-0.0320,0.0445,-0.0462,0.0371,0.0021,25.4100,-1.4951,-33.4235,
10.2660,-0.0914,-0.0393,1.0063,-0.0111,-0.0320,0.0445,-0.0462,0.0371,0.0021,25.4100,-1.4951,-33.4235,
10.2660,-0.0899,-0.0402,1.0212,-0.0111,-0.0320,0.0445,-0.0462,0.0371,0.0021,25.4100,-1.4951,-33.4235,
10.2670,-0.0899,-0.0402,1.0212,-0.0405,-0.0037,0.0415,-0.0462,0.0371,0.0021,25.4100,-1.4951,-33.4235,
10.2800,-0.0899,-0.0402,1.0212,-0.0405,-0.0037,0.0415,-0.0462,0.0371,0.0021,25.4484,-1.4648,-33.4460,
10.3030,-0.0899,-0.0402,1.0212,-0.0405,-0.0037,0.0415,-0.0498,0.0576,0.0079,25.4484,-1.4648,-33.4460,
10.3040,-0.0886,-0.0454,1.0319,-0.0405,-0.0037,0.0415,-0.0498,0.0576,0.0079,25.4484,-1.4648,-33.4460,
10.3040,-0.0860,-0.0488,1.0345,-0.0405,-0.0037,0.0415,-0.0498,0.0576,0.0079,25.4484,-1.4648,-33.4460,
10.3420,-0.0860,-0.0488,1.0345,-0.0405,-0.0037,0.0415,-0.0168,0.0108,0.0042,25.4484,-1.4648,-33.4460,
10.3430,-0.0860,-0.0488,1.0345,-0.0025,0.0303,-0.1160,-0.0168,0.0108,0.0042,25.4484,-1.4648,-33.4460,
10.3440,-0.0867,-0.0483,1.0337,-0.0025,0.0303,-0.1160,-0.0168,0.0108,0.0042,25.4484,-1.4648,-33.4460,
10.3450,-0.0894,-0.0443,1.0296,-0.0025,0.0303,-0.1160,-0.0168,0.0108,0.0042,25.4484,-1.4648,-33.4460,
10.3470,-0.0894,-0.0443,1.0296,-0.0025,0.0303,-0.1160,-0.0168,0.0108,0.0042,25.5360,-1.4111,-33.4139,
10.3690,-0.0927,-0.0425,1.0228,-0.0025,0.0303,-0.1160,-0.0168,0.0108,0.0042,25.5360,-1.4111,-33.4139,
10.4000,-0.0937,-0.0449,1.0147,-0.0025,0.0303,-0.1160,-0.0168,0.0108,0.0042,25.5360,-1.4111,-33.4139,
10.4020,-0.0937,-0.0449,1.0147,-0.0025,0.0303,-0.1160,0.0027,-0.0136,0.0018,25.5360,-1.4111,-33.4139,
10.4030,-0.0954,-0.0480,1.0115,-0.0025,0.0303,-0.1160,0.0027,-0.0136,0.0018,25.5360,-1.4111,-33.4139,
10.4040,-0.0954,-0.0480,1.0115,0.0349,-0.0342,0.1226,0.0027,-0.0136,0.0018,25.5360,-1.4111,-33.4139,
10.4140,-0.0954,-0.0480,1.0115,0.0349,-0.0342,0.1226,0.0027,-0.0136,0.0018,25.5987,-1.3793,-33.4225,
10.4350,-0.0961,-0.0474,1.0130,0.0349,-0.0342,0.1226,0.0027,-0.0136,0.0018,25.5987,-1.3793,-33.4225,
10.4360,-0.0961,-0.0474,1.0130,0.0349,-0.0342,0.1226,-0.0061,0.0081,-0.0013,25.5987,-1.3793,-33.4225,
10.4770,-0.0939,-0.0477,1.0202,0.0349,-0.0342,0.1226,-0.0061,0.0081,-0.0013,25.5987,-1.3793,-33.4225,
10.4790,-0.0939,-0.0477,1.0202,0.0349,-0.0342,0.1226,-0.0196,0.0304,0.0036,25.5987,-1.3793,-33.4225,
10.4790,-0.0942,-0.0477,1.0247,0.0349,-0.0342,0.1226,-0.0196,0.0304,0.0036,25.5987,-1.3793,-33.4225,
10.4800,-0.0942,-0.0477,1.0247,-0.0091,-0.0003,-0.0185,-0.0196,0.0304,0.0036,25.5987,-1.3793,-33.4225,
10.4800,-0.0942,-0.0483,1.0242,-0.0091,-0.0003,-0.0185,-0.0196,0.0304,0.0036,25.5987,-1.3793,-33.4225,
10.4800,-0.0942,-0.0483,1.0242,-0.0091,-0.0003,-0.0185,-0.0196,0.0304,0.0036,25.6007,-1.3401,-33.4200,
10.5020,-0.0932,-0.0483,1.0205,-0.0091,-0.0003,-0.0185,-0.0196,0.0304,0.0036,25.6007,-1.3401,-33.4200,
10.5030,-0.0932,-0.0483,1.0205,-0.0091,-0.0003,-0.0185,-0.0003,-0.0017,0.0021,25.6007,-1.3401,-33.4200,
10.5380,-0.0932,-0.0483,1.0205,-0.0145,-0.0298,0.0016,-0.0003,-0.0017,0.0021,25.6007,-1.3401,-33.4200,
10.5400,-0.0932,-0.0483,1.0205,-0.0145,-0.0298,0.0016,0.0094,0.0139,-0.0013,25.6007,-1.3401,-33.4200,
10.5400,-0.0941,-0.0463,1.0169,-0.0145,-0.0298,0.0016,0.0094,0.0139,-0.0013,25.6007,-1.3401,-33.4200,
10.5410,-0.0948,-0.0459,1.0164,-0.0145,-0.0298,0.0016,0.0094,0.0139,-0.0013,25.6007,-1.3401,-33.4200,
10.5470,-0.0948,-0.0459,1.0164,-0.0145,-0.0298,0.0016,0.0094,0.0139,-0.0013,25.5660,-1.3020,-33.4060,
10.5690,-0.0953,-0.0463,1.0180,-0.0145,-0.0298,0.0016,0.0094,0.0139,-0.0013,25.5660,-1.3020,-33.4060,
10.6140,-0.0944,-0.0477,1.0188,-0.0145,-0.0298,0.0016,0.0094,0.0139,-0.0013,25.5660,-1.3020,-33.4060,
10.6150,-0.0938,-0.0475,1.0190,-0.0145,-0.0298,0.0016,0.0094,0.0139,-0.0013,25.5660,-1.3020,-33.4060,
10.6160,-0.0966,-0.0481,1.0181,-0.0145,-0.0298,0.0016,0.0094,0.0139,-0.0013,25.5660,-1.3020,-33.4060,
10.6160,-0.0966,-0.0481,1.0181,-0.0145,-0.0298,0.0016,-0.0010,0.0267,0.0002,25.5660,-1.3020,-33.4060,
10.6170,-0.0966,-0.0481,1.0181,-0.0145,-0.0298,0.0016,0.0039,0.0197,-0.0001,25.5660,-1.3020,-33.4060,
10.6180,-0.0966,-0.0481,1.0181,0.0070,-0.0201,-0.0103,0.0039,0.0197,-0.0001,25.5660,-1.3020,-33.4060,
10.6180,-0.0966,-0.0481,1.0181,0.0070,-0.0201,-0.0103,0.0039,0.0197,-0.0001,25.5676,-1.2726,-33.4041,
10.6360,-0.0963,-0.0492,1.0177,0.0070,-0.0201,-0.0103,0.0039,0.0197,-0.0001,25.5676,-1.2726,-33.4041,
10.6730,-0.0980,-0.0491,1.0211,0.0070,-0.0201,-0.0103,0.0039,0.0197,-0.0001,25.5676,-1.2726,-33.4041,
10.6750,-0.0980,-0.0491,1.0211,0.0177,-0.0199,-0.0081,0.0039,0.0197,-0.0001,25.5676,-1.2726,-33.4041,
10.6750,-0.0980,-0.0491,1.0211,0.0177,-0.0199,-0.0081,-0.0013,0.0197,0.0009,25.5676,-1.2726,-33.4041,
10.6760,-0.0983,-0.0482,1.0264,0.0177,-0.0199,-0.0081,-0.0013,0.0197,0.0009,25.5676,-1.2726,-33.4041,
10.6800,-0.0983,-0.0482,1.0264,0.0177,-0.0199,-0.0081,-0.0013,0.0197,0.0009,25.5690,-1.2317,-33.3502,
10.7020,-0.1002,-0.0491,1.0329,0.0177,-0.0199,-0.0081,-0.0013,0.0197,0.0009,25.5690,-1.2317,-33.3502,
10.7040,-0.1002,-0.0491,1.0329,0.0177,-0.0199,-0.0081,-0.0058,0.0695,-0.0007,25.5690,-1.2317,-33.3502,
10.7470,-0.1027,-0.0471,1.0395,0.0177,-0.0199,-0.0081,-0.0058,0.0695,-0.0007,25.5690,-1.2317,-33.3502,
10.7490,-0.1046,-0.0467,1.0392,0.0177,-0.0199,-0.0081,-0.0058,0.0695,-0.0007,25.5690,-1.2317,-33.3502,
10.7490,-0.1046,-0.0467,1.0392,0.0177,-0.0199,-0.0081,0.0097,0.0997,-0.0016,25.5690,-1.2317,-33.3502,
10.7500,-0.1046,-0.0467,1.0392,0.0177,-0.0199,-0.0081,0.0097,0.0997,-0.0016,25.6057,-1.2304,-33.3616,
10.7510,-0.1040,-0.0453,1.0319,0.0177,-0.0199,-0.0081,0.0097,0.0997,-0.0016,25.6057,-1.2304,-33.3616,
10.7510,-0.1040,-0.0453,1.0319,0.0488,-0.0345,0.0200,0.0097,0.0997,-0.0016,25.6057,-1.2304,-33.3616,
10.8100,-0.1040,-0.0455,1.0214,0.0488,-0.0345,0.0200,0.0097,0.0997,-0.0016,25.6057,-1.2304,-33.3616,
10.8120,-0.1021,-0.0441,1.0152,0.0488,-0.0345,0.0200,0.0097,0.0997,-0.0016,25.6057,-1.2304,-33.3616,
10.8130,-0.1021,-0.0435,1.0114,0.0488,-0.0345,0.0200,0.0097,0.0997,-0.0016,25.6057,-1.2304,-33.3616,
10.8130,-0.1021,-0.0435,1.0114,0.0488,-0.0345,0.0200,0.0348,0.0597,-0.0022,25.6057,-1.2304,-33.3616,
10.8140,-0.1021,-0.0435,1.0114,0.0180,-0.0396,0.1560,0.0348,0.0597,-0.0022,25.6057,-1.2304,-33.3616,
10.8140,-0.1021,-0.0435,1.0114,0.0180,-0.0396,0.1560,0.0326,0.0173,-0.0053,25.6057,-1.2304,-33.3616,
10.8150,-0.1021,-0.0435,1.0114,0.0180,-0.0396,0.1560,0.0326,0.0173,-0.0053,25.6786,-1.2043,-33.2547,
10.8360,-0.1044,-0.0428,1.0137,0.0180,-0.0396,0.1560,0.0326,0.0173,-0.0053,25.6786,-1.2043,-33.2547,
10.8820,-0.1044,-0.0428,1.0137,0.0180,-0.0396,0.1560,0.0363,0.0356,-0.0092,25.6786,-1.2043,-33.2547,
10.8830,-0.1081,-0.0441,1.0156,0.0180,-0.0396,0.1560,0.0363,0.0356,-0.0092,25.6786,-1.2043,-33.2547,
10.8840,-0.1081,-0.0441,1.0156,0.0180,-0.0396,0.1560,0.0363,0.0356,-0.0092,25.7879,-1.1982,-33.2119,
10.8850,-0.1124,-0.0427,1.0200,0.0180,-0.0396,0.1560,0.0363,0.0356,-0.0092,25.7879,-1.1982,-33.2119,
10.8880,-0.1147,-0.0430,1.0223,0.0180,-0.0396,0.1560,0.0363,0.0356,-0.0092,25.7879,-1.1982,-33.2119,
10.8890,-0.1147,-0.0430,1.0223,0.0359,-0.0344,-0.0253,0.0363,0.0356,-0.0092,25.7879,-1.1982,-33.2119,
10.9020,-0.1147,-0.0430,1.0223,0.0359,-0.0344,-0.0253,0.0501,0.0417,-0.0049,25.7879,-1.1982,-33.2119,
10.9460,-0.1135,-0.0420,1.0213,0.0359,-0.0344,-0.0253,0.0501,0.0417,-0.0049,25.7879,-1.1982,-33.2119,
10.9470,-0.1115,-0.0409,1.0224,0.0359,-0.0344,-0.0253,0.0501,0.0417,-0.0049,25.7879,-1.1982,-33.2119,
10.9480,-0.1113,-0.0391,1.0238,0.0359,-0.0344,-0.0253,0.0501,0.0417,-0.0049,25.7879,-1.1982,-33.2119,
10.9480,-0.1113,-0.0391,1.0238,-0.0044,-0.0523,-0.0287,0.0501,0.0417,-0.0049,25.7879,-1.1982,-33.2119,
10.9490,-0.1113,-0.0391,1.0238,-0.0044,-0.0523,-0.0287,0.0543,0.0237,-0.0056,25.7879,-1.1982,-33.2119,
10.9490,-0.1113,-0.0391,1.0238,-0.0044,-0.0523,-0.0287,0.0543,0.0237,-0.0056,25.8824,-1.2418,-33.1728,
10.9710,-0.1110,-0.0377,1.0240,-0.0044,-0.0523,-0.0287,0.0543,0.0237,-0.0056,25.8824,-1.2418,-33.1728,
10.9720,-0.1110,-0.0377,1.0240,-0.0044,-0.0523,-0.0287,0.0589,0.0392,-0.0108,25.8824,-1.2418,-33.1728,
11.0140,-0.1093,-0.0383,1.0186,-0.0044,-0.0523,-0.0287,0.0589,0.0392,-0.0108,25.8824,-1.2418,-33.1728,
11.0150,-0.1093,-0.0383,1.0186,-0.0044,-0.0523,-0.0287,0.0589,0.0392,-0.0108,26.0003,-1.2929,-33.0948,
11.0160,-0.1079,-0.0365,1.0155,-0.0044,-0.0523,-0.0287,0.0589,0.0392,-0.0108,26.0003,-1.2929,-33.0948,
11.0170,-0.1079,-0.0365,1.0155,-0.0044,-0.0523,-0.0287,0.0699,0.0283,-0.0098,26.0003,-1.2929,-33.0948,
11.0240,-0.1079,-0.0365,1.0155,-0.0192,-0.0685,0.0228,0.0699,0.0283,-0.0098,26.0003,-1.2929,-33.0948,
11.0350,-0.1066,-0.0344,1.0174,-0.0192,-0.0685,0.0228,0.0699,0.0283,-0.0098,26.0003,-1.2929,-33.0948,
11.0810,-0.1094,-0.0307,1.0175,-0.0192,-0.0685,0.0228,0.0699,0.0283,-0.0098,26.0003,-1.2929,-33.0948,
11.0820,-0.1094,-0.0307,1.0175,-0.0192,-0.0685,0.0228,0.0806,-0.0619,-0.0199,26.0003,-1.2929,-33.0948,
11.0830,-0.1094,-0.0307,1.0175,-0.0192,-0.0685,0.0228,0.0806,-0.0619,-0.0199,26.0808,-1.3546,-32.9930,
11.0840,-0.1154,-0.0304,1.0013,-0.0192,-0.0685,0.0228,0.0806,-0.0619,-0.0199,26.0808,-1.3546,-32.9930,
11.0850,-0.1202,-0.0292,0.9962,-0.0192,-0.0685,0.0228,0.0806,-0.0619,-0.0199,26.0808,-1.3546,-32.9930,
11.0850,-0.1202,-0.0292,0.9962,-0.0192,-0.0685,0.0228,0.0858,-0.0918,-0.0309,26.0808,-1.3546,-32.9930,
11.0860,-0.1202,-0.0292,0.9962,-0.0381,-0.0771,-0.0189,0.0858,-0.0918,-0.0309,26.0808,-1.3546,-32.9930,
11.1020,-0.1168,-0.0273,1.0017,-0.0381,-0.0771,-0.0189,0.0858,-0.0918,-0.0309,26.0808,-1.3546,-32.9930,
11.1470,-0.1098,-0.0240,1.0119,-0.0381,-0.0771,-0.0189,0.0858,-0.0918,-0.0309,26.0808,-1.3546,-32.9930,
11.1480,-0.1098,-0.0240,1.0119,-0.0381,-0.0771,-0.0189,0.0858,-0.0918,-0.0309,26.1489,-1.4385,-32.9573,
11.1490,-0.1098,-0.0240,1.0119,-0.0381,-0.0771,-0.0189,0.0537,0.0029,-0.0221,26.1489,-1.4385,-32.9573,
11.1490,-0.1043,-0.0216,1.0192,-0.0381,-0.0771,-0.0189,0.0537,0.0029,-0.0221,26.1489,-1.4385,-32.9573,
11.1590,-0.1010,-0.0260,1.0225,-0.0381,-0.0771,-0.0189,0.0537,0.0029,-0.0221,26.1489,-1.4385,-32.9573,
11.1600,-0.1010,-0.0260,1.0225,-0.0381,-0.0771,-0.0189,0.0275,0.0176,-0.0169,26.1489,-1.4385,-32.9573,
11.1610,-0.1010,-0.0260,1.0225,-0.0672,-0.0365,-0.1213,0.0275,0.0176,-0.0169,26.1489,-1.4385,-32.9573,
11.2170,-0.1010,-0.0260,1.0225,-0.0672,-0.0365,-0.1213,0.0149,-0.0392,-0.0178,26.1489,-1.4385,-32.9573,
